"view_history","rt","trial_type","trial_index","time_elapsed","internal_node_id","stimulus","response","class","status","answer","correct","trial","letters"
"[{""page_index"":0,""viewing_time"":36270}]","36271","instructions","0","36276","0.0-0.0","","","","","","","",""
"","null","html-keyboard-response","1","36901","0.0-1.0-0.0","+","null","","","","","",""
"","15237","html-keyboard-response","2","52142","0.0-1.0-1.0","órgão","s","null","noncog","word","S","prac","null"
"","null","html-keyboard-response","3","52655","0.0-1.0-0.1","+","null","","","","","",""
"","3863","html-keyboard-response","4","56519","0.0-1.0-1.1","oliva","s","null","cog","word","S","prac","null"
"","null","html-keyboard-response","5","57034","0.0-1.0-0.2","+","null","","","","","",""
"","2886","html-keyboard-response","6","59922","0.0-1.0-1.2","plibar","n","null","noncog","pseudo","N","prac","null"
"","null","html-keyboard-response","7","60433","0.0-1.0-0.3","+","null","","","","","",""
"","7901","html-keyboard-response","8","68335","0.0-1.0-1.3","crante","n","null","noncog","pseudo","N","prac","null"
"","null","html-keyboard-response","9","68848","0.0-1.0-0.4","+","null","","","","","",""
"","5672","html-keyboard-response","10","74527","0.0-1.0-1.4","chassi","s","null","cog","word","S","prac","null"
"","null","html-keyboard-response","11","75042","0.0-1.0-0.5","+","null","","","","","",""
"","3861","html-keyboard-response","12","78906","0.0-1.0-1.5","daja","n","null","noncog","pseudo","N","prac","null"
"","null","html-keyboard-response","13","79411","0.0-1.0-0.6","+","null","","","","","",""
"","15077","html-keyboard-response","14","94490","0.0-1.0-1.6","calmaria","n","null","noncog","word","S","prac","null"
"[{""page_index"":0,""viewing_time"":60484}]","60484","instructions","15","154975","0.0-2.0","","","","","","","",""
"","null","html-keyboard-response","16","155599","0.0-3.0-0.0","+","null","","","","","",""
"","2355","html-keyboard-response","17","157958","0.0-3.0-1.0","aivões","n","null","noncog","pseudo","N","exp","null"
"","null","html-keyboard-response","18","158461","0.0-3.0-0.1","+","null","","","","","",""
"","1382","html-keyboard-response","19","159846","0.0-3.0-1.1","tio","s","n","noncog","word","S","exp","3"
"","null","html-keyboard-response","20","160350","0.0-3.0-0.2","+","null","","","","","",""
"","2948","html-keyboard-response","21","163300","0.0-3.0-1.2","usfiga","n","null","noncog","pseudo","N","exp","null"
"","null","html-keyboard-response","22","163817","0.0-3.0-0.3","+","null","","","","","",""
"","1709","html-keyboard-response","23","165527","0.0-3.0-1.3","aemaça","n","null","noncog","pseudo","N","exp","null"
"","null","html-keyboard-response","24","166042","0.0-3.0-0.4","+","null","","","","","",""
"","3138","html-keyboard-response","25","169181","0.0-3.0-1.4","resmungar","s","v","noncog","word","S","exp","9"
"","null","html-keyboard-response","26","169688","0.0-3.0-0.5","+","null","","","","","",""
"","1204","html-keyboard-response","27","170894","0.0-3.0-1.5","grátis","s","a","cog","word","S","exp","6"
"","null","html-keyboard-response","28","171406","0.0-3.0-0.6","+","null","","","","","",""
"","1274","html-keyboard-response","29","172680","0.0-3.0-1.6","bancada","s","n","noncog","word","S","exp","7"
"","null","html-keyboard-response","30","173183","0.0-3.0-0.7","+","null","","","","","",""
"","1374","html-keyboard-response","31","174559","0.0-3.0-1.7","afual","n","null","noncog","pseudo","N","exp","null"
"","null","html-keyboard-response","32","175065","0.0-3.0-0.8","+","null","","","","","",""
"","1228","html-keyboard-response","33","176294","0.0-3.0-1.8","filosofia","s","n","cog","word","S","exp","9"
"","null","html-keyboard-response","34","176799","0.0-3.0-0.9","+","null","","","","","",""
"","1650","html-keyboard-response","35","178451","0.0-3.0-1.9","ofreta","s","null","noncog","pseudo","N","exp","null"
"","null","html-keyboard-response","36","178954","0.0-3.0-0.10","+","null","","","","","",""
"","2758","html-keyboard-response","37","181715","0.0-3.0-1.10","fasdas","n","null","noncog","pseudo","N","exp","null"
"","null","html-keyboard-response","38","182216","0.0-3.0-0.11","+","null","","","","","",""
"","1980","html-keyboard-response","39","184197","0.0-3.0-1.11","sanque","n","null","noncog","pseudo","N","exp","null"
"","null","html-keyboard-response","40","184713","0.0-3.0-0.12","+","null","","","","","",""
"","1719","html-keyboard-response","41","186434","0.0-3.0-1.12","dilheira","n","null","noncog","pseudo","N","exp","null"
"","null","html-keyboard-response","42","186947","0.0-3.0-0.13","+","null","","","","","",""
"","1572","html-keyboard-response","43","188522","0.0-3.0-1.13","ênclio","n","null","noncog","pseudo","N","exp","null"
"","null","html-keyboard-response","44","189029","0.0-3.0-0.14","+","null","","","","","",""
"","1890","html-keyboard-response","45","190921","0.0-3.0-1.14","nome","s","n","cog","word","S","exp","4"
"","null","html-keyboard-response","46","191436","0.0-3.0-0.15","+","null","","","","","",""
"","1491","html-keyboard-response","47","192927","0.0-3.0-1.15","rédesa","s","null","noncog","pseudo","N","exp","null"
"","null","html-keyboard-response","48","193443","0.0-3.0-0.16","+","null","","","","","",""
"","1007","html-keyboard-response","49","194450","0.0-3.0-1.16","fofo","s","a","noncog","word","S","exp","4"
"","null","html-keyboard-response","50","194960","0.0-3.0-0.17","+","null","","","","","",""
"","1027","html-keyboard-response","51","195987","0.0-3.0-1.17","revista","s","n","cog","word","S","exp","7"
"","null","html-keyboard-response","52","196489","0.0-3.0-0.18","+","null","","","","","",""
"","1187","html-keyboard-response","53","197677","0.0-3.0-1.18","comércio","s","n","noncog","word","S","exp","8"
"","null","html-keyboard-response","54","198189","0.0-3.0-0.19","+","null","","","","","",""
"","1281","html-keyboard-response","55","199472","0.0-3.0-1.19","refletir","s","v","cog","word","S","exp","8"
"","null","html-keyboard-response","56","199989","0.0-3.0-0.20","+","null","","","","","",""
"","2135","html-keyboard-response","57","202125","0.0-3.0-1.20","uchães","n","null","noncog","pseudo","N","exp","null"
"","null","html-keyboard-response","58","202639","0.0-3.0-0.21","+","null","","","","","",""
"","989","html-keyboard-response","59","203629","0.0-3.0-1.21","ejerro","n","null","noncog","pseudo","N","exp","null"
"","null","html-keyboard-response","60","204134","0.0-3.0-0.22","+","null","","","","","",""
"","2366","html-keyboard-response","61","206500","0.0-3.0-1.22","cascata","n","n","noncog","word","S","exp","7"
"","null","html-keyboard-response","62","207004","0.0-3.0-0.23","+","null","","","","","",""
"","1055","html-keyboard-response","63","208059","0.0-3.0-1.23","pedaço","s","n","noncog","word","S","exp","6"
"","null","html-keyboard-response","64","208568","0.0-3.0-0.24","+","null","","","","","",""
"","1276","html-keyboard-response","65","209846","0.0-3.0-1.24","hipócrita","s","a","noncog","word","S","exp","9"
"","null","html-keyboard-response","66","210352","0.0-3.0-0.25","+","null","","","","","",""
"","1493","html-keyboard-response","67","211846","0.0-3.0-1.25","conjerto","s","null","noncog","pseudo","N","exp","null"
"","null","html-keyboard-response","68","212359","0.0-3.0-0.26","+","null","","","","","",""
"","1080","html-keyboard-response","69","213440","0.0-3.0-1.26","perdão","s","n","noncog","word","S","exp","6"
"","null","html-keyboard-response","70","213950","0.0-3.0-0.27","+","null","","","","","",""
"","1242","html-keyboard-response","71","215194","0.0-3.0-1.27","bracos","s","null","noncog","pseudo","N","exp","null"
"","null","html-keyboard-response","72","215705","0.0-3.0-0.28","+","null","","","","","",""
"","2677","html-keyboard-response","73","218382","0.0-3.0-1.28","promeção","n","null","noncog","pseudo","N","exp","null"
"","null","html-keyboard-response","74","218898","0.0-3.0-0.29","+","null","","","","","",""
"","1154","html-keyboard-response","75","220053","0.0-3.0-1.29","mudança","s","n","noncog","word","S","exp","7"
"","null","html-keyboard-response","76","220561","0.0-3.0-0.30","+","null","","","","","",""
"","1382","html-keyboard-response","77","221944","0.0-3.0-1.30","loaco","n","null","noncog","pseudo","N","exp","null"
"","null","html-keyboard-response","78","222454","0.0-3.0-0.31","+","null","","","","","",""
"","1192","html-keyboard-response","79","223647","0.0-3.0-1.31","abieso","n","null","noncog","pseudo","N","exp","null"
"","null","html-keyboard-response","80","224163","0.0-3.0-0.32","+","null","","","","","",""
"","1745","html-keyboard-response","81","225908","0.0-3.0-1.32","bagunceira","s","a","noncog","word","S","exp","10"
"","null","html-keyboard-response","82","226423","0.0-3.0-0.33","+","null","","","","","",""
"","1604","html-keyboard-response","83","228029","0.0-3.0-1.33","enedro","n","null","noncog","pseudo","N","exp","null"
"","null","html-keyboard-response","84","228534","0.0-3.0-0.34","+","null","","","","","",""
"","1560","html-keyboard-response","85","230094","0.0-3.0-1.34","salpicado","s","a","noncog","word","S","exp","9"
"","null","html-keyboard-response","86","230607","0.0-3.0-0.35","+","null","","","","","",""
"","1039","html-keyboard-response","87","231647","0.0-3.0-1.35","independente","s","a","noncog","word","S","exp","12"
"","null","html-keyboard-response","88","232161","0.0-3.0-0.36","+","null","","","","","",""
"","961","html-keyboard-response","89","233123","0.0-3.0-1.36","glória","s","n","cog","word","S","exp","6"
"","null","html-keyboard-response","90","233635","0.0-3.0-0.37","+","null","","","","","",""
"","866","html-keyboard-response","91","234501","0.0-3.0-1.37","reduzir","s","v","cog","word","S","exp","7"
"","null","html-keyboard-response","92","235013","0.0-3.0-0.38","+","null","","","","","",""
"","1561","html-keyboard-response","93","236575","0.0-3.0-1.38","faínas","n","null","noncog","pseudo","N","exp","null"
"","null","html-keyboard-response","94","237078","0.0-3.0-0.39","+","null","","","","","",""
"","989","html-keyboard-response","95","238068","0.0-3.0-1.39","nervoso","s","a","noncog","word","S","exp","7"
"","null","html-keyboard-response","96","238575","0.0-3.0-0.40","+","null","","","","","",""
"","2010","html-keyboard-response","97","240587","0.0-3.0-1.40","senareta","n","null","noncog","pseudo","N","exp","null"
"","null","html-keyboard-response","98","241102","0.0-3.0-0.41","+","null","","","","","",""
"","1763","html-keyboard-response","99","242867","0.0-3.0-1.41","pitada","s","n","noncog","word","S","exp","6"
"","null","html-keyboard-response","100","243371","0.0-3.0-0.42","+","null","","","","","",""
"","1543","html-keyboard-response","101","244915","0.0-3.0-1.42","bambu","s","n","cog","word","S","exp","5"
"","null","html-keyboard-response","102","245417","0.0-3.0-0.43","+","null","","","","","",""
"","1748","html-keyboard-response","103","247165","0.0-3.0-1.43","manfa","n","null","noncog","pseudo","N","exp","null"
"","null","html-keyboard-response","104","247677","0.0-3.0-0.44","+","null","","","","","",""
"","1228","html-keyboard-response","105","248904","0.0-3.0-1.44","tartos","s","null","noncog","pseudo","N","exp","null"
"","null","html-keyboard-response","106","249412","0.0-3.0-0.45","+","null","","","","","",""
"","818","html-keyboard-response","107","250231","0.0-3.0-1.45","frotes","s","null","noncog","pseudo","N","exp","null"
"","null","html-keyboard-response","108","250734","0.0-3.0-0.46","+","null","","","","","",""
"","2716","html-keyboard-response","109","253452","0.0-3.0-1.46","montanha","s","n","cog","word","S","exp","8"
"","null","html-keyboard-response","110","253961","0.0-3.0-0.47","+","null","","","","","",""
"","1596","html-keyboard-response","111","255558","0.0-3.0-1.47","âgnulo","n","null","noncog","pseudo","N","exp","null"
"","null","html-keyboard-response","112","256065","0.0-3.0-0.48","+","null","","","","","",""
"","960","html-keyboard-response","113","257027","0.0-3.0-1.48","imitar","s","v","cog","word","S","exp","6"
"","null","html-keyboard-response","114","257535","0.0-3.0-0.49","+","null","","","","","",""
"","1110","html-keyboard-response","115","258646","0.0-3.0-1.49","cravo","s","n","noncog","word","S","exp","5"
"","null","html-keyboard-response","116","259160","0.0-3.0-0.50","+","null","","","","","",""
"","931","html-keyboard-response","117","260092","0.0-3.0-1.50","esperar","s","v","cog","word","S","exp","7"
"","null","html-keyboard-response","118","260600","0.0-3.0-0.51","+","null","","","","","",""
"","1316","html-keyboard-response","119","261916","0.0-3.0-1.51","nivelado","s","a","cog","word","S","exp","8"
"","null","html-keyboard-response","120","262438","0.0-3.0-0.52","+","null","","","","","",""
"","1399","html-keyboard-response","121","263836","0.0-3.0-1.52","extravagante","s","a","cog","word","S","exp","12"
"","null","html-keyboard-response","122","264343","0.0-3.0-0.53","+","null","","","","","",""
"","725","html-keyboard-response","123","265069","0.0-3.0-1.53","morar","s","v","noncog","word","S","exp","5"
"","null","html-keyboard-response","124","265573","0.0-3.0-0.54","+","null","","","","","",""
"","1200","html-keyboard-response","125","266774","0.0-3.0-1.54","vervas","s","null","noncog","pseudo","N","exp","null"
"","null","html-keyboard-response","126","267277","0.0-3.0-0.55","+","null","","","","","",""
"","738","html-keyboard-response","127","268015","0.0-3.0-1.55","atrasar","s","v","noncog","word","S","exp","7"
"","null","html-keyboard-response","128","268519","0.0-3.0-0.56","+","null","","","","","",""
"","768","html-keyboard-response","129","269286","0.0-3.0-1.56","perbas","s","null","noncog","pseudo","N","exp","null"
"","null","html-keyboard-response","130","269799","0.0-3.0-0.57","+","null","","","","","",""
"","834","html-keyboard-response","131","270634","0.0-3.0-1.57","avenas","s","null","noncog","pseudo","N","exp","null"
"","null","html-keyboard-response","132","271134","0.0-3.0-0.58","+","null","","","","","",""
"","1338","html-keyboard-response","133","272472","0.0-3.0-1.58","manais","s","null","noncog","pseudo","N","exp","null"
"","null","html-keyboard-response","134","272976","0.0-3.0-0.59","+","null","","","","","",""
"","1064","html-keyboard-response","135","274041","0.0-3.0-1.59","civil","s","a","cog","word","S","exp","5"
"","null","html-keyboard-response","136","274559","0.0-3.0-0.60","+","null","","","","","",""
"","763","html-keyboard-response","137","275322","0.0-3.0-1.60","crutas","s","null","noncog","pseudo","N","exp","null"
"","null","html-keyboard-response","138","275839","0.0-3.0-0.61","+","null","","","","","",""
"","1402","html-keyboard-response","139","277241","0.0-3.0-1.61","pritas","s","null","noncog","pseudo","N","exp","null"
"","null","html-keyboard-response","140","277754","0.0-3.0-0.62","+","null","","","","","",""
"","927","html-keyboard-response","141","278683","0.0-3.0-1.62","oper","s","null","noncog","pseudo","N","exp","null"
"","null","html-keyboard-response","142","279197","0.0-3.0-0.63","+","null","","","","","",""
"","1847","html-keyboard-response","143","281046","0.0-3.0-1.63","motre","n","null","noncog","pseudo","N","exp","null"
"","null","html-keyboard-response","144","281550","0.0-3.0-0.64","+","null","","","","","",""
"","967","html-keyboard-response","145","282518","0.0-3.0-1.64","verceja","s","null","noncog","pseudo","N","exp","null"
"","null","html-keyboard-response","146","283034","0.0-3.0-0.65","+","null","","","","","",""
"","1753","html-keyboard-response","147","284787","0.0-3.0-1.65","trenos","s","null","noncog","pseudo","N","exp","null"
"","null","html-keyboard-response","148","285300","0.0-3.0-0.66","+","null","","","","","",""
"","1461","html-keyboard-response","149","286762","0.0-3.0-1.66","selir","n","null","noncog","pseudo","N","exp","null"
"","null","html-keyboard-response","150","287264","0.0-3.0-0.67","+","null","","","","","",""
"","837","html-keyboard-response","151","288101","0.0-3.0-1.67","euorpa","n","null","noncog","pseudo","N","exp","null"
"","null","html-keyboard-response","152","288614","0.0-3.0-0.68","+","null","","","","","",""
"","1508","html-keyboard-response","153","290124","0.0-3.0-1.68","pega-pega","s","n","noncog","word","S","exp","8"
"","null","html-keyboard-response","154","290638","0.0-3.0-0.69","+","null","","","","","",""
"","1614","html-keyboard-response","155","292254","0.0-3.0-1.69","quenzina","s","null","noncog","pseudo","N","exp","null"
"","null","html-keyboard-response","156","292765","0.0-3.0-0.70","+","null","","","","","",""
"","1319","html-keyboard-response","157","294085","0.0-3.0-1.70","fusbão","s","null","noncog","pseudo","N","exp","null"
"","null","html-keyboard-response","158","294593","0.0-3.0-0.71","+","null","","","","","",""
"","904","html-keyboard-response","159","295499","0.0-3.0-1.71","animado","s","a","noncog","word","S","exp","7"
"","null","html-keyboard-response","160","296001","0.0-3.0-0.72","+","null","","","","","",""
"","1480","html-keyboard-response","161","297482","0.0-3.0-1.72","morija","s","null","noncog","pseudo","N","exp","null"
"","null","html-keyboard-response","162","297986","0.0-3.0-0.73","+","null","","","","","",""
"","714","html-keyboard-response","163","298699","0.0-3.0-1.73","promessa","s","n","noncog","word","S","exp","8"
"","null","html-keyboard-response","164","299207","0.0-3.0-0.74","+","null","","","","","",""
"","1718","html-keyboard-response","165","300925","0.0-3.0-1.74","usnado","n","null","noncog","pseudo","N","exp","null"
"","null","html-keyboard-response","166","301431","0.0-3.0-0.75","+","null","","","","","",""
"","833","html-keyboard-response","167","302263","0.0-3.0-1.75","matinal","s","a","cog","word","S","exp","7"
"","null","html-keyboard-response","168","302773","0.0-3.0-0.76","+","null","","","","","",""
"","1569","html-keyboard-response","169","304343","0.0-3.0-1.76","pimada","n","null","noncog","pseudo","N","exp","null"
"","null","html-keyboard-response","170","304858","0.0-3.0-0.77","+","null","","","","","",""
"","626","html-keyboard-response","171","305485","0.0-3.0-1.77","telefone","s","n","cog","word","S","exp","8"
"","null","html-keyboard-response","172","305987","0.0-3.0-0.78","+","null","","","","","",""
"","545","html-keyboard-response","173","306532","0.0-3.0-1.78","país","s","n","noncog","word","S","exp","4"
"","null","html-keyboard-response","174","307038","0.0-3.0-0.79","+","null","","","","","",""
"","1723","html-keyboard-response","175","308761","0.0-3.0-1.79","costra","s","null","noncog","pseudo","N","exp","null"
"","null","html-keyboard-response","176","309267","0.0-3.0-0.80","+","null","","","","","",""
"","666","html-keyboard-response","177","309934","0.0-3.0-1.80","carro","s","n","noncog","word","S","exp","5"
"","null","html-keyboard-response","178","310444","0.0-3.0-0.81","+","null","","","","","",""
"","1935","html-keyboard-response","179","312382","0.0-3.0-1.81","gertas","n","null","noncog","pseudo","N","exp","null"
"","null","html-keyboard-response","180","312887","0.0-3.0-0.82","+","null","","","","","",""
"","1758","html-keyboard-response","181","314646","0.0-3.0-1.82","delirar","s","v","noncog","word","S","exp","7"
"","null","html-keyboard-response","182","315148","0.0-3.0-0.83","+","null","","","","","",""
"","659","html-keyboard-response","183","315809","0.0-3.0-1.83","verdade","s","n","cog","word","S","exp","7"
"","null","html-keyboard-response","184","316326","0.0-3.0-0.84","+","null","","","","","",""
"","1602","html-keyboard-response","185","317929","0.0-3.0-1.84","pantufa","s","n","cog","word","S","exp","7"
"","null","html-keyboard-response","186","318437","0.0-3.0-0.85","+","null","","","","","",""
"","1597","html-keyboard-response","187","320035","0.0-3.0-1.85","grótis","n","null","noncog","pseudo","N","exp","null"
"","null","html-keyboard-response","188","320540","0.0-3.0-0.86","+","null","","","","","",""
"","587","html-keyboard-response","189","321127","0.0-3.0-1.86","cristal","s","n","cog","word","S","exp","7"
"","null","html-keyboard-response","190","321637","0.0-3.0-0.87","+","null","","","","","",""
"","1913","html-keyboard-response","191","323551","0.0-3.0-1.87","carona","s","n","noncog","word","S","exp","6"
"","null","html-keyboard-response","192","324060","0.0-3.0-0.88","+","null","","","","","",""
"","1405","html-keyboard-response","193","325466","0.0-3.0-1.88","detative","s","null","noncog","pseudo","N","exp","null"
"","null","html-keyboard-response","194","325975","0.0-3.0-0.89","+","null","","","","","",""
"","892","html-keyboard-response","195","326869","0.0-3.0-1.89","cápsula","s","n","noncog","word","S","exp","7"
"","null","html-keyboard-response","196","327384","0.0-3.0-0.90","+","null","","","","","",""
"","689","html-keyboard-response","197","328074","0.0-3.0-1.90","grave","s","a","cog","word","S","exp","5"
"","null","html-keyboard-response","198","328580","0.0-3.0-0.91","+","null","","","","","",""
"","903","html-keyboard-response","199","329484","0.0-3.0-1.91","aletiê","n","null","noncog","pseudo","N","exp","null"
"","null","html-keyboard-response","200","329990","0.0-3.0-0.92","+","null","","","","","",""
"","1115","html-keyboard-response","201","331106","0.0-3.0-1.92","vitrive","n","null","noncog","pseudo","N","exp","null"
"","null","html-keyboard-response","202","331617","0.0-3.0-0.93","+","null","","","","","",""
"","645","html-keyboard-response","203","332263","0.0-3.0-1.93","chato","s","n","noncog","word","S","exp","5"
"","null","html-keyboard-response","204","332773","0.0-3.0-0.94","+","null","","","","","",""
"","1220","html-keyboard-response","205","333997","0.0-3.0-1.94","dipata","s","null","noncog","pseudo","N","exp","null"
"","null","html-keyboard-response","206","334499","0.0-3.0-0.95","+","null","","","","","",""
"","920","html-keyboard-response","207","335419","0.0-3.0-1.95","esfoce","s","null","noncog","pseudo","N","exp","null"
"","null","html-keyboard-response","208","335921","0.0-3.0-0.96","+","null","","","","","",""
"","693","html-keyboard-response","209","336615","0.0-3.0-1.96","brincar","s","v","noncog","word","S","exp","7"
"","null","html-keyboard-response","210","337130","0.0-3.0-0.97","+","null","","","","","",""
"","1372","html-keyboard-response","211","338502","0.0-3.0-1.97","ocinto","n","null","noncog","pseudo","N","exp","null"
"","null","html-keyboard-response","212","339013","0.0-3.0-0.98","+","null","","","","","",""
"","750","html-keyboard-response","213","339765","0.0-3.0-1.98","ilhure","n","null","noncog","pseudo","N","exp","null"
"","null","html-keyboard-response","214","340269","0.0-3.0-0.99","+","null","","","","","",""
"","1828","html-keyboard-response","215","342098","0.0-3.0-1.99","deselegante","s","a","noncog","word","S","exp","11"
"","null","html-keyboard-response","216","342628","0.0-3.0-0.100","+","null","","","","","",""
"","963","html-keyboard-response","217","343592","0.0-3.0-1.100","tatear","n","v","cog","word","S","exp","6"
"","null","html-keyboard-response","218","344098","0.0-3.0-0.101","+","null","","","","","",""
"","741","html-keyboard-response","219","344840","0.0-3.0-1.101","oecano","n","null","noncog","pseudo","N","exp","null"
"","null","html-keyboard-response","220","345351","0.0-3.0-0.102","+","null","","","","","",""
"","1328","html-keyboard-response","221","346682","0.0-3.0-1.102","papai","s","n","cog","word","S","exp","5"
"","null","html-keyboard-response","222","347183","0.0-3.0-0.103","+","null","","","","","",""
"","1484","html-keyboard-response","223","348669","0.0-3.0-1.103","morno","s","a","noncog","word","S","exp","5"
"","null","html-keyboard-response","224","349183","0.0-3.0-0.104","+","null","","","","","",""
"","582","html-keyboard-response","225","349767","0.0-3.0-1.104","dia","s","n","noncog","word","S","exp","3"
"","null","html-keyboard-response","226","350274","0.0-3.0-0.105","+","null","","","","","",""
"","1294","html-keyboard-response","227","351570","0.0-3.0-1.105","boreta","s","null","noncog","pseudo","N","exp","null"
"","null","html-keyboard-response","228","352074","0.0-3.0-0.106","+","null","","","","","",""
"","1947","html-keyboard-response","229","354022","0.0-3.0-1.106","undivídio","s","null","noncog","pseudo","N","exp","null"
"","null","html-keyboard-response","230","354528","0.0-3.0-0.107","+","null","","","","","",""
"","1038","html-keyboard-response","231","355567","0.0-3.0-1.107","instruído","s","a","noncog","word","S","exp","9"
"","null","html-keyboard-response","232","356069","0.0-3.0-0.108","+","null","","","","","",""
"","1057","html-keyboard-response","233","357127","0.0-3.0-1.108","gruja","s","null","noncog","pseudo","N","exp","null"
"","null","html-keyboard-response","234","357643","0.0-3.0-0.109","+","null","","","","","",""
"","1683","html-keyboard-response","235","359326","0.0-3.0-1.109","farcas","s","null","noncog","pseudo","N","exp","null"
"","null","html-keyboard-response","236","359840","0.0-3.0-0.110","+","null","","","","","",""
"","1264","html-keyboard-response","237","361104","0.0-3.0-1.110","cenada","s","null","noncog","pseudo","N","exp","null"
"","null","html-keyboard-response","238","361616","0.0-3.0-0.111","+","null","","","","","",""
"","1003","html-keyboard-response","239","362619","0.0-3.0-1.111","preferir","s","v","cog","word","S","exp","8"
"","null","html-keyboard-response","240","363125","0.0-3.0-0.112","+","null","","","","","",""
"","2190","html-keyboard-response","241","365317","0.0-3.0-1.112","enxerido","s","a","noncog","word","S","exp","8"
"","null","html-keyboard-response","242","365819","0.0-3.0-0.113","+","null","","","","","",""
"","770","html-keyboard-response","243","366591","0.0-3.0-1.113","anjo","s","n","cog","word","S","exp","4"
"","null","html-keyboard-response","244","367098","0.0-3.0-0.114","+","null","","","","","",""
"","757","html-keyboard-response","245","367855","0.0-3.0-1.114","cinema","s","n","cog","word","S","exp","6"
"","null","html-keyboard-response","246","368357","0.0-3.0-0.115","+","null","","","","","",""
"","1325","html-keyboard-response","247","369683","0.0-3.0-1.115","sintonizar","s","v","noncog","word","S","exp","10"
"","null","html-keyboard-response","248","370187","0.0-3.0-0.116","+","null","","","","","",""
"","870","html-keyboard-response","249","371059","0.0-3.0-1.116","burtos","s","null","noncog","pseudo","N","exp","null"
"","null","html-keyboard-response","250","371565","0.0-3.0-0.117","+","null","","","","","",""
"","865","html-keyboard-response","251","372431","0.0-3.0-1.117","carregar","s","v","noncog","word","S","exp","8"
"","null","html-keyboard-response","252","372943","0.0-3.0-0.118","+","null","","","","","",""
"","1189","html-keyboard-response","253","374133","0.0-3.0-1.118","cirado","s","null","noncog","pseudo","N","exp","null"
"","null","html-keyboard-response","254","374646","0.0-3.0-0.119","+","null","","","","","",""
"","680","html-keyboard-response","255","375327","0.0-3.0-1.119","jantar","s","v","noncog","word","S","exp","6"
"","null","html-keyboard-response","256","375832","0.0-3.0-0.120","+","null","","","","","",""
"","745","html-keyboard-response","257","376577","0.0-3.0-1.120","traduzir","s","v","cog","word","S","exp","8"
"","null","html-keyboard-response","258","377094","0.0-3.0-0.121","+","null","","","","","",""
"","1932","html-keyboard-response","259","379027","0.0-3.0-1.121","garastia","s","null","noncog","pseudo","N","exp","null"
"","null","html-keyboard-response","260","379533","0.0-3.0-0.122","+","null","","","","","",""
"","847","html-keyboard-response","261","380381","0.0-3.0-1.122","alfabeto","s","n","cog","word","S","exp","8"
"","null","html-keyboard-response","262","380884","0.0-3.0-0.123","+","null","","","","","",""
"","678","html-keyboard-response","263","381563","0.0-3.0-1.123","raspar","s","v","noncog","word","S","exp","6"
"","null","html-keyboard-response","264","382067","0.0-3.0-0.124","+","null","","","","","",""
"","2004","html-keyboard-response","265","384071","0.0-3.0-1.124","dencosto","n","null","noncog","pseudo","N","exp","null"
"","null","html-keyboard-response","266","384582","0.0-3.0-0.125","+","null","","","","","",""
"","557","html-keyboard-response","267","385141","0.0-3.0-1.125","nacional","s","a","cog","word","S","exp","8"
"","null","html-keyboard-response","268","385643","0.0-3.0-0.126","+","null","","","","","",""
"","2105","html-keyboard-response","269","387749","0.0-3.0-1.126","pneucania","s","null","noncog","pseudo","N","exp","null"
"","null","html-keyboard-response","270","388260","0.0-3.0-0.127","+","null","","","","","",""
"","596","html-keyboard-response","271","388857","0.0-3.0-1.127","tênis","s","n","cog","word","S","exp","5"
"","null","html-keyboard-response","272","389364","0.0-3.0-0.128","+","null","","","","","",""
"","618","html-keyboard-response","273","389984","0.0-3.0-1.128","fratos","s","null","noncog","pseudo","N","exp","null"
"","null","html-keyboard-response","274","390492","0.0-3.0-0.129","+","null","","","","","",""
"","1287","html-keyboard-response","275","391780","0.0-3.0-1.129","lorfaz","n","null","noncog","pseudo","N","exp","null"
"","null","html-keyboard-response","276","392287","0.0-3.0-0.130","+","null","","","","","",""
"","945","html-keyboard-response","277","393232","0.0-3.0-1.130","trair","s","v","cog","word","S","exp","5"
"","null","html-keyboard-response","278","393739","0.0-3.0-0.131","+","null","","","","","",""
"","930","html-keyboard-response","279","394669","0.0-3.0-1.131","convidado","s","n","noncog","word","S","exp","9"
"","null","html-keyboard-response","280","395172","0.0-3.0-0.132","+","null","","","","","",""
"","2206","html-keyboard-response","281","397379","0.0-3.0-1.132","franda","n","null","noncog","pseudo","N","exp","null"
"","null","html-keyboard-response","282","397887","0.0-3.0-0.133","+","null","","","","","",""
"","905","html-keyboard-response","283","398793","0.0-3.0-1.133","espionar","s","v","cog","word","S","exp","8"
"","null","html-keyboard-response","284","399306","0.0-3.0-0.134","+","null","","","","","",""
"","1970","html-keyboard-response","285","401277","0.0-3.0-1.134","plinta","n","null","noncog","pseudo","N","exp","null"
"","null","html-keyboard-response","286","401786","0.0-3.0-0.135","+","null","","","","","",""
"","660","html-keyboard-response","287","402447","0.0-3.0-1.135","nevela","s","null","noncog","pseudo","N","exp","null"
"","null","html-keyboard-response","288","402956","0.0-3.0-0.136","+","null","","","","","",""
"","1739","html-keyboard-response","289","404697","0.0-3.0-1.136","motros","n","null","noncog","pseudo","N","exp","null"
"","null","html-keyboard-response","290","405213","0.0-3.0-0.137","+","null","","","","","",""
"","1221","html-keyboard-response","291","406435","0.0-3.0-1.137","adoçar","s","v","noncog","word","S","exp","6"
"","null","html-keyboard-response","292","406945","0.0-3.0-0.138","+","null","","","","","",""
"","1034","html-keyboard-response","293","407978","0.0-3.0-1.138","fogão","s","n","noncog","word","S","exp","5"
"","null","html-keyboard-response","294","408491","0.0-3.0-0.139","+","null","","","","","",""
"","2321","html-keyboard-response","295","410813","0.0-3.0-1.139","berquesa","s","null","noncog","pseudo","N","exp","null"
"","null","html-keyboard-response","296","411321","0.0-3.0-0.140","+","null","","","","","",""
"","714","html-keyboard-response","297","412036","0.0-3.0-1.140","ótimo","s","a","noncog","word","S","exp","5"
"","null","html-keyboard-response","298","412537","0.0-3.0-0.141","+","null","","","","","",""
"","936","html-keyboard-response","299","413475","0.0-3.0-1.141","pulmão","s","n","noncog","word","S","exp","6"
"","null","html-keyboard-response","300","413988","0.0-3.0-0.142","+","null","","","","","",""
"","2194","html-keyboard-response","301","416182","0.0-3.0-1.142","ensuas","n","null","noncog","pseudo","N","exp","null"
"","null","html-keyboard-response","302","416694","0.0-3.0-0.143","+","null","","","","","",""
"","880","html-keyboard-response","303","417576","0.0-3.0-1.143","melão","s","n","cog","word","S","exp","5"
"","null","html-keyboard-response","304","418085","0.0-3.0-0.144","+","null","","","","","",""
"","690","html-keyboard-response","305","418775","0.0-3.0-1.144","liso","s","n","noncog","word","S","exp","4"
"","null","html-keyboard-response","306","419291","0.0-3.0-0.145","+","null","","","","","",""
"","710","html-keyboard-response","307","420002","0.0-3.0-1.145","drama","s","n","cog","word","S","exp","5"
"","null","html-keyboard-response","308","420505","0.0-3.0-0.146","+","null","","","","","",""
"","1540","html-keyboard-response","309","422047","0.0-3.0-1.146","rovaz","n","null","noncog","pseudo","N","exp","null"
"","null","html-keyboard-response","310","422554","0.0-3.0-0.147","+","null","","","","","",""
"","538","html-keyboard-response","311","423093","0.0-3.0-1.147","mal","s","a","cog","word","S","exp","3"
"","null","html-keyboard-response","312","423594","0.0-3.0-0.148","+","null","","","","","",""
"","809","html-keyboard-response","313","424403","0.0-3.0-1.148","gordo","s","a","noncog","word","S","exp","5"
"","null","html-keyboard-response","314","424915","0.0-3.0-0.149","+","null","","","","","",""
"","684","html-keyboard-response","315","425601","0.0-3.0-1.149","tinta","s","n","cog","word","S","exp","5"
"","null","html-keyboard-response","316","426104","0.0-3.0-0.150","+","null","","","","","",""
"","1360","html-keyboard-response","317","427464","0.0-3.0-1.150","jastor","n","null","noncog","pseudo","N","exp","null"
"","null","html-keyboard-response","318","427968","0.0-3.0-0.151","+","null","","","","","",""
"","3729","html-keyboard-response","319","431699","0.0-3.0-1.151","suipestar","n","null","noncog","pseudo","N","exp","null"
"","null","html-keyboard-response","320","432213","0.0-3.0-0.152","+","null","","","","","",""
"","1001","html-keyboard-response","321","433214","0.0-3.0-1.152","disbrituir","s","null","noncog","pseudo","N","exp","null"
"","null","html-keyboard-response","322","433723","0.0-3.0-0.153","+","null","","","","","",""
"","1267","html-keyboard-response","323","434991","0.0-3.0-1.153","pangos","n","null","noncog","pseudo","N","exp","null"
"","null","html-keyboard-response","324","435498","0.0-3.0-0.154","+","null","","","","","",""
"","1485","html-keyboard-response","325","436984","0.0-3.0-1.154","irratinte","s","null","noncog","pseudo","N","exp","null"
"","null","html-keyboard-response","326","437490","0.0-3.0-0.155","+","null","","","","","",""
"","1121","html-keyboard-response","327","438612","0.0-3.0-1.155","gilha","n","null","noncog","pseudo","N","exp","null"
"","null","html-keyboard-response","328","439130","0.0-3.0-0.156","+","null","","","","","",""
"","979","html-keyboard-response","329","440110","0.0-3.0-1.156","hedoru","n","null","noncog","pseudo","N","exp","null"
"","null","html-keyboard-response","330","440619","0.0-3.0-0.157","+","null","","","","","",""
"","972","html-keyboard-response","331","441592","0.0-3.0-1.157","parceter","s","null","noncog","pseudo","N","exp","null"
"","null","html-keyboard-response","332","442096","0.0-3.0-0.158","+","null","","","","","",""
"","2364","html-keyboard-response","333","444460","0.0-3.0-1.158","revear","n","null","noncog","pseudo","N","exp","null"
"","null","html-keyboard-response","334","444978","0.0-3.0-0.159","+","null","","","","","",""
"","1400","html-keyboard-response","335","446379","0.0-3.0-1.159","atitro","n","null","noncog","pseudo","N","exp","null"
"","null","html-keyboard-response","336","446895","0.0-3.0-0.160","+","null","","","","","",""
"","1310","html-keyboard-response","337","448207","0.0-3.0-1.160","prantal","n","null","noncog","pseudo","N","exp","null"
"","null","html-keyboard-response","338","448727","0.0-3.0-0.161","+","null","","","","","",""
"","2230","html-keyboard-response","339","450957","0.0-3.0-1.161","candifência","n","null","noncog","pseudo","N","exp","null"
"","null","html-keyboard-response","340","451474","0.0-3.0-0.162","+","null","","","","","",""
"","819","html-keyboard-response","341","452294","0.0-3.0-1.162","agravar","s","v","cog","word","S","exp","7"
"","null","html-keyboard-response","342","452799","0.0-3.0-0.163","+","null","","","","","",""
"","587","html-keyboard-response","343","453388","0.0-3.0-1.163","especial","s","a","cog","word","S","exp","8"
"","null","html-keyboard-response","344","453897","0.0-3.0-0.164","+","null","","","","","",""
"","2122","html-keyboard-response","345","456020","0.0-3.0-1.164","escumo","n","null","noncog","pseudo","N","exp","null"
"","null","html-keyboard-response","346","456528","0.0-3.0-0.165","+","null","","","","","",""
"","2665","html-keyboard-response","347","459194","0.0-3.0-1.165","telafonir","n","null","noncog","pseudo","N","exp","null"
"","null","html-keyboard-response","348","459697","0.0-3.0-0.166","+","null","","","","","",""
"","1733","html-keyboard-response","349","461430","0.0-3.0-1.166","encelhor","n","null","noncog","pseudo","N","exp","null"
"","null","html-keyboard-response","350","461942","0.0-3.0-0.167","+","null","","","","","",""
"","1393","html-keyboard-response","351","463336","0.0-3.0-1.167","árovre","s","null","noncog","pseudo","N","exp","null"
"","null","html-keyboard-response","352","463841","0.0-3.0-0.168","+","null","","","","","",""
"","3285","html-keyboard-response","353","467128","0.0-3.0-1.168","hébies","n","null","noncog","pseudo","N","exp","null"
"","null","html-keyboard-response","354","467634","0.0-3.0-0.169","+","null","","","","","",""
"","782","html-keyboard-response","355","468418","0.0-3.0-1.169","açúcar","s","n","noncog","word","S","exp","6"
"","null","html-keyboard-response","356","468924","0.0-3.0-0.170","+","null","","","","","",""
"","1457","html-keyboard-response","357","470384","0.0-3.0-1.170","bandido","s","n","cog","word","S","exp","7"
"","null","html-keyboard-response","358","470890","0.0-3.0-0.171","+","null","","","","","",""
"","1700","html-keyboard-response","359","472591","0.0-3.0-1.171","orupas","n","null","noncog","pseudo","N","exp","null"
"","null","html-keyboard-response","360","473092","0.0-3.0-0.172","+","null","","","","","",""
"","1498","html-keyboard-response","361","474591","0.0-3.0-1.172","incomodar","s","v","noncog","word","S","exp","9"
"","null","html-keyboard-response","362","475105","0.0-3.0-0.173","+","null","","","","","",""
"","772","html-keyboard-response","363","475877","0.0-3.0-1.173","agressivo","s","a","cog","word","S","exp","9"
"","null","html-keyboard-response","364","476382","0.0-3.0-0.174","+","null","","","","","",""
"","696","html-keyboard-response","365","477079","0.0-3.0-1.174","filme","s","n","cog","word","S","exp","5"
"","null","html-keyboard-response","366","477584","0.0-3.0-0.175","+","null","","","","","",""
"","692","html-keyboard-response","367","478277","0.0-3.0-1.175","tímido","s","a","cog","word","S","exp","6"
"","null","html-keyboard-response","368","478782","0.0-3.0-0.176","+","null","","","","","",""
"","2565","html-keyboard-response","369","481347","0.0-3.0-1.176","podilo","n","null","noncog","pseudo","N","exp","null"
"","null","html-keyboard-response","370","481863","0.0-3.0-0.177","+","null","","","","","",""
"","1065","html-keyboard-response","371","482930","0.0-3.0-1.177","protas","n","null","noncog","pseudo","N","exp","null"
"","null","html-keyboard-response","372","483434","0.0-3.0-0.178","+","null","","","","","",""
"","1126","html-keyboard-response","373","484561","0.0-3.0-1.178","braras","n","null","noncog","pseudo","N","exp","null"
"","null","html-keyboard-response","374","485063","0.0-3.0-0.179","+","null","","","","","",""
"","1664","html-keyboard-response","375","486728","0.0-3.0-1.179","ideisa","n","null","noncog","pseudo","N","exp","null"
"","null","html-keyboard-response","376","487230","0.0-3.0-0.180","+","null","","","","","",""
"","627","html-keyboard-response","377","487859","0.0-3.0-1.180","azul","s","n","noncog","word","S","exp","4"
"","null","html-keyboard-response","378","488374","0.0-3.0-0.181","+","null","","","","","",""
"","1987","html-keyboard-response","379","490360","0.0-3.0-1.181","aperor","n","null","noncog","pseudo","N","exp","null"
"","null","html-keyboard-response","380","490872","0.0-3.0-0.182","+","null","","","","","",""
"","1726","html-keyboard-response","381","492599","0.0-3.0-1.182","crolatário","n","null","noncog","pseudo","N","exp","null"
"","null","html-keyboard-response","382","493115","0.0-3.0-0.183","+","null","","","","","",""
"","553","html-keyboard-response","383","493671","0.0-3.0-1.183","livro","s","n","cog","word","S","exp","5"
"","null","html-keyboard-response","384","494182","0.0-3.0-0.184","+","null","","","","","",""
"","857","html-keyboard-response","385","495040","0.0-3.0-1.184","multiplicar","s","v","cog","word","S","exp","11"
"","null","html-keyboard-response","386","495555","0.0-3.0-0.185","+","null","","","","","",""
"","1235","html-keyboard-response","387","496793","0.0-3.0-1.185","macras","s","null","noncog","pseudo","N","exp","null"
"","null","html-keyboard-response","388","497295","0.0-3.0-0.186","+","null","","","","","",""
"","2022","html-keyboard-response","389","499318","0.0-3.0-1.186","atapdar","s","null","noncog","pseudo","N","exp","null"
"","null","html-keyboard-response","390","499827","0.0-3.0-0.187","+","null","","","","","",""
"","1777","html-keyboard-response","391","501604","0.0-3.0-1.187","oricia","n","null","noncog","pseudo","N","exp","null"
"","null","html-keyboard-response","392","502123","0.0-3.0-0.188","+","null","","","","","",""
"","786","html-keyboard-response","393","502909","0.0-3.0-1.188","sábio","s","n","noncog","word","S","exp","5"
"","null","html-keyboard-response","394","503423","0.0-3.0-0.189","+","null","","","","","",""
"","1595","html-keyboard-response","395","505020","0.0-3.0-1.189","mabras","s","null","noncog","pseudo","N","exp","null"
"","null","html-keyboard-response","396","505527","0.0-3.0-0.190","+","null","","","","","",""
"","1470","html-keyboard-response","397","507000","0.0-3.0-1.190","ronronar","n","v","cog","word","S","exp","8"
"","null","html-keyboard-response","398","507514","0.0-3.0-0.191","+","null","","","","","",""
"","837","html-keyboard-response","399","508353","0.0-3.0-1.191","mania","s","n","cog","word","S","exp","5"
"","null","html-keyboard-response","400","508855","0.0-3.0-0.192","+","null","","","","","",""
"","1364","html-keyboard-response","401","510221","0.0-3.0-1.192","casuas","s","null","noncog","pseudo","N","exp","null"
"","null","html-keyboard-response","402","510725","0.0-3.0-0.193","+","null","","","","","",""
"","2742","html-keyboard-response","403","513469","0.0-3.0-1.193","beima","n","null","noncog","pseudo","N","exp","null"
"","null","html-keyboard-response","404","513971","0.0-3.0-0.194","+","null","","","","","",""
"","1044","html-keyboard-response","405","515017","0.0-3.0-1.194","terdia","n","null","noncog","pseudo","N","exp","null"
"","null","html-keyboard-response","406","515524","0.0-3.0-0.195","+","null","","","","","",""
"","3646","html-keyboard-response","407","519172","0.0-3.0-1.195","dobradiça","s","n","noncog","word","S","exp","9"
"","null","html-keyboard-response","408","519673","0.0-3.0-0.196","+","null","","","","","",""
"","1637","html-keyboard-response","409","521312","0.0-3.0-1.196","bachir","s","null","noncog","pseudo","N","exp","null"
"","null","html-keyboard-response","410","521817","0.0-3.0-0.197","+","null","","","","","",""
"","758","html-keyboard-response","411","522577","0.0-3.0-1.197","francês","s","a","cog","word","S","exp","7"
"","null","html-keyboard-response","412","523091","0.0-3.0-0.198","+","null","","","","","",""
"","1027","html-keyboard-response","413","524118","0.0-3.0-1.198","bibarconato","s","null","noncog","pseudo","N","exp","null"
"","null","html-keyboard-response","414","524631","0.0-3.0-0.199","+","null","","","","","",""
"","645","html-keyboard-response","415","525277","0.0-3.0-1.199","trabalhar","s","v","noncog","word","S","exp","9"
"","null","html-keyboard-response","416","525781","0.0-3.0-0.200","+","null","","","","","",""
"","923","html-keyboard-response","417","526705","0.0-3.0-1.200","sustentar","s","v","noncog","word","S","exp","9"
"","null","html-keyboard-response","418","527212","0.0-3.0-0.201","+","null","","","","","",""
"","1096","html-keyboard-response","419","528311","0.0-3.0-1.201","medalha","s","n","cog","word","S","exp","7"
"","null","html-keyboard-response","420","528825","0.0-3.0-0.202","+","null","","","","","",""
"","738","html-keyboard-response","421","529564","0.0-3.0-1.202","memória","s","n","cog","word","S","exp","7"
"","null","html-keyboard-response","422","530074","0.0-3.0-0.203","+","null","","","","","",""
"","836","html-keyboard-response","423","530912","0.0-3.0-1.203","chorão","s","a","noncog","word","S","exp","6"
"","null","html-keyboard-response","424","531425","0.0-3.0-0.204","+","null","","","","","",""
"","804","html-keyboard-response","425","532231","0.0-3.0-1.204","espinho","s","n","noncog","word","S","exp","7"
"","null","html-keyboard-response","426","532736","0.0-3.0-0.205","+","null","","","","","",""
"","610","html-keyboard-response","427","533347","0.0-3.0-1.205","tela","s","n","noncog","word","S","exp","4"
"","null","html-keyboard-response","428","533859","0.0-3.0-0.206","+","null","","","","","",""
"","1937","html-keyboard-response","429","535797","0.0-3.0-1.206","enxarto","s","null","noncog","pseudo","N","exp","null"
"","null","html-keyboard-response","430","536305","0.0-3.0-0.207","+","null","","","","","",""
"","3204","html-keyboard-response","431","539511","0.0-3.0-1.207","lapestra","n","null","noncog","pseudo","N","exp","null"
"","null","html-keyboard-response","432","540021","0.0-3.0-0.208","+","null","","","","","",""
"","1658","html-keyboard-response","433","541680","0.0-3.0-1.208","taberia","n","null","noncog","pseudo","N","exp","null"
"","null","html-keyboard-response","434","542187","0.0-3.0-0.209","+","null","","","","","",""
"","2688","html-keyboard-response","435","544876","0.0-3.0-1.209","dacada","s","null","noncog","pseudo","N","exp","null"
"","null","html-keyboard-response","436","545380","0.0-3.0-0.210","+","null","","","","","",""
"","628","html-keyboard-response","437","546010","0.0-3.0-1.210","destino","s","n","cog","word","S","exp","7"
"","null","html-keyboard-response","438","546519","0.0-3.0-0.211","+","null","","","","","",""
"","836","html-keyboard-response","439","547356","0.0-3.0-1.211","areia","s","n","noncog","word","S","exp","5"
"","null","html-keyboard-response","440","547871","0.0-3.0-0.212","+","null","","","","","",""
"","1283","html-keyboard-response","441","549155","0.0-3.0-1.212","aparme","s","null","noncog","pseudo","N","exp","null"
"","null","html-keyboard-response","442","549664","0.0-3.0-0.213","+","null","","","","","",""
"","2202","html-keyboard-response","443","551868","0.0-3.0-1.213","risbos","s","null","noncog","pseudo","N","exp","null"
"","null","html-keyboard-response","444","552380","0.0-3.0-0.214","+","null","","","","","",""
"","1315","html-keyboard-response","445","553696","0.0-3.0-1.214","distraído","s","a","cog","word","S","exp","9"
"","null","html-keyboard-response","446","554205","0.0-3.0-0.215","+","null","","","","","",""
"","725","html-keyboard-response","447","554931","0.0-3.0-1.215","espaço","s","n","cog","word","S","exp","6"
"","null","html-keyboard-response","448","555444","0.0-3.0-0.216","+","null","","","","","",""
"","641","html-keyboard-response","449","556086","0.0-3.0-1.216","liberal","s","a","cog","word","S","exp","7"
"","null","html-keyboard-response","450","556595","0.0-3.0-0.217","+","null","","","","","",""
"","1024","html-keyboard-response","451","557621","0.0-3.0-1.217","aitrou","n","null","noncog","pseudo","N","exp","null"
"","null","html-keyboard-response","452","558142","0.0-3.0-0.218","+","null","","","","","",""
"","722","html-keyboard-response","453","558866","0.0-3.0-1.218","barco","s","n","cog","word","S","exp","5"
"","null","html-keyboard-response","454","559382","0.0-3.0-0.219","+","null","","","","","",""
"","696","html-keyboard-response","455","560085","0.0-3.0-1.219","socorro","s","n","noncog","word","S","exp","7"
"","null","html-keyboard-response","456","560604","0.0-3.0-0.220","+","null","","","","","",""
"","968","html-keyboard-response","457","561573","0.0-3.0-1.220","arranjar","s","v","cog","word","S","exp","8"
"","null","html-keyboard-response","458","562082","0.0-3.0-0.221","+","null","","","","","",""
"","697","html-keyboard-response","459","562781","0.0-3.0-1.221","cerca","s","n","noncog","word","S","exp","5"
"","null","html-keyboard-response","460","563291","0.0-3.0-0.222","+","null","","","","","",""
"","722","html-keyboard-response","461","564017","0.0-3.0-1.222","prenas","s","null","noncog","pseudo","N","exp","null"
"","null","html-keyboard-response","462","564522","0.0-3.0-0.223","+","null","","","","","",""
"","2335","html-keyboard-response","463","566860","0.0-3.0-1.223","delomir","n","null","noncog","pseudo","N","exp","null"
"","null","html-keyboard-response","464","567367","0.0-3.0-0.224","+","null","","","","","",""
"","974","html-keyboard-response","465","568344","0.0-3.0-1.224","fino","s","a","cog","word","S","exp","4"
"","null","html-keyboard-response","466","568853","0.0-3.0-0.225","+","null","","","","","",""
"","1123","html-keyboard-response","467","569976","0.0-3.0-1.225","prever","s","v","cog","word","S","exp","6"
"","null","html-keyboard-response","468","570480","0.0-3.0-0.226","+","null","","","","","",""
"","648","html-keyboard-response","469","571131","0.0-3.0-1.226","viver","s","v","cog","word","S","exp","5"
"","null","html-keyboard-response","470","571648","0.0-3.0-0.227","+","null","","","","","",""
"","1336","html-keyboard-response","471","572986","0.0-3.0-1.227","propaganda","s","n","cog","word","S","exp","10"
"","null","html-keyboard-response","472","573488","0.0-3.0-0.228","+","null","","","","","",""
"","1085","html-keyboard-response","473","574575","0.0-3.0-1.228","temperar","s","v","noncog","word","S","exp","8"
"","null","html-keyboard-response","474","575091","0.0-3.0-0.229","+","null","","","","","",""
"","1781","html-keyboard-response","475","576875","0.0-3.0-1.229","uçar","n","null","noncog","pseudo","N","exp","null"
"","null","html-keyboard-response","476","577392","0.0-3.0-0.230","+","null","","","","","",""
"","731","html-keyboard-response","477","578124","0.0-3.0-1.230","tronca","s","null","noncog","pseudo","N","exp","null"
"","null","html-keyboard-response","478","578641","0.0-3.0-0.231","+","null","","","","","",""
"","1369","html-keyboard-response","479","580012","0.0-3.0-1.231","lagoa","s","n","cog","word","S","exp","5"
"","null","html-keyboard-response","480","580527","0.0-3.0-0.232","+","null","","","","","",""
"","1957","html-keyboard-response","481","582485","0.0-3.0-1.232","esprotiar","n","null","noncog","pseudo","N","exp","null"
"","null","html-keyboard-response","482","583000","0.0-3.0-0.233","+","null","","","","","",""
"","1017","html-keyboard-response","483","584019","0.0-3.0-1.233","mua","n","null","noncog","pseudo","N","exp","null"
"","null","html-keyboard-response","484","584522","0.0-3.0-0.234","+","null","","","","","",""
"","1383","html-keyboard-response","485","585906","0.0-3.0-1.234","alpica","n","null","noncog","pseudo","N","exp","null"
"","null","html-keyboard-response","486","586420","0.0-3.0-0.235","+","null","","","","","",""
"","1246","html-keyboard-response","487","587668","0.0-3.0-1.235","afonher","n","null","noncog","pseudo","N","exp","null"
"","null","html-keyboard-response","488","588180","0.0-3.0-0.236","+","null","","","","","",""
"","1081","html-keyboard-response","489","589263","0.0-3.0-1.236","apontar","s","v","noncog","word","S","exp","7"
"","null","html-keyboard-response","490","589766","0.0-3.0-0.237","+","null","","","","","",""
"","669","html-keyboard-response","491","590436","0.0-3.0-1.237","verde","s","a","noncog","word","S","exp","5"
"","null","html-keyboard-response","492","590944","0.0-3.0-0.238","+","null","","","","","",""
"","860","html-keyboard-response","493","591806","0.0-3.0-1.238","lagras","s","null","noncog","pseudo","N","exp","null"
"","null","html-keyboard-response","494","592308","0.0-3.0-0.239","+","null","","","","","",""
"","1780","html-keyboard-response","495","594088","0.0-3.0-1.239","planalto","s","n","cog","word","S","exp","8"
