[
	{
		"view_history": [
			{
				"page_index": 0,
				"viewing_time": 52050
			},
			{
				"page_index": 1,
				"viewing_time": 29475
			}
		],
		"rt": 81525,
		"trial_type": "instructions",
		"trial_index": 0,
		"time_elapsed": 81529,
		"internal_node_id": "0.0-0.0"
	},
	{
		"rt": null,
		"stimulus": "<span style= \"font-size:30px; font-family: monospace\">+</span>",
		"response": null,
		"trial_part": "fixation",
		"trial_type": "html-keyboard-response",
		"trial_index": 1,
		"time_elapsed": 82651,
		"internal_node_id": "0.0-1.0-0.0-0.0"
	},
	{
		"rt": 6275,
		"stimulus": "<span style=\"font-size:30px; font-family: monospace\">O</span>",
		"response": " ",
		"trial": "prac-sent",
		"word": "O",
		"trial_type": "html-keyboard-response",
		"trial_index": 2,
		"time_elapsed": 89179,
		"internal_node_id": "0.0-1.0-1.0"
	},
	{
		"rt": 3103,
		"stimulus": "<span style=\"font-size:30px; font-family: monospace\">dia</span>",
		"response": " ",
		"trial": "prac-sent",
		"word": "dia",
		"trial_type": "html-keyboard-response",
		"trial_index": 3,
		"time_elapsed": 92540,
		"internal_node_id": "0.0-1.0-1.1"
	},
	{
		"rt": 2084,
		"stimulus": "<span style=\"font-size:30px; font-family: monospace\">estará</span>",
		"response": " ",
		"trial": "prac-sent",
		"word": "estará",
		"trial_type": "html-keyboard-response",
		"trial_index": 4,
		"time_elapsed": 94878,
		"internal_node_id": "0.0-1.0-1.2"
	},
	{
		"rt": 1694,
		"stimulus": "<span style=\"font-size:30px; font-family: monospace\">cheio</span>",
		"response": " ",
		"trial": "prac-sent",
		"word": "cheio",
		"trial_type": "html-keyboard-response",
		"trial_index": 5,
		"time_elapsed": 96823,
		"internal_node_id": "0.0-1.0-1.3"
	},
	{
		"rt": 1443,
		"stimulus": "<span style=\"font-size:30px; font-family: monospace\">de</span>",
		"response": " ",
		"trial": "prac-sent",
		"word": "de",
		"trial_type": "html-keyboard-response",
		"trial_index": 6,
		"time_elapsed": 98533,
		"internal_node_id": "0.0-1.0-1.4"
	},
	{
		"rt": 2087,
		"stimulus": "<span style=\"font-size:30px; font-family: monospace\">nuvens</span>",
		"response": " ",
		"trial": "prac-sent",
		"word": "nuvens",
		"trial_type": "html-keyboard-response",
		"trial_index": 7,
		"time_elapsed": 100881,
		"internal_node_id": "0.0-1.0-1.5"
	},
	{
		"rt": 2294,
		"stimulus": "<span style=\"font-size:30px; font-family: monospace\">hoje.</span>",
		"response": " ",
		"trial": "prac-sent",
		"word": "hoje.",
		"trial_type": "html-keyboard-response",
		"trial_index": 8,
		"time_elapsed": 103434,
		"internal_node_id": "0.0-1.0-1.6"
	},
	{
		"rt": null,
		"stimulus": "<span style= \"font-size:30px; font-family: monospace\">+</span>",
		"response": null,
		"trial_part": "fixation",
		"trial_type": "html-keyboard-response",
		"trial_index": 9,
		"time_elapsed": 104704,
		"internal_node_id": "0.0-1.0-0.7-0.7"
	},
	{
		"rt": 4775,
		"stimulus": "<span style=\"font-size:30px; font-family: monospace\">A</span>",
		"response": " ",
		"trial": "prac-sent",
		"word": "A",
		"trial_type": "html-keyboard-response",
		"trial_index": 10,
		"time_elapsed": 109734,
		"internal_node_id": "0.0-1.0-1.7"
	},
	{
		"rt": 2145,
		"stimulus": "<span style=\"font-size:30px; font-family: monospace\">caneca</span>",
		"response": " ",
		"trial": "prac-sent",
		"word": "caneca",
		"trial_type": "html-keyboard-response",
		"trial_index": 11,
		"time_elapsed": 112134,
		"internal_node_id": "0.0-1.0-1.8"
	},
	{
		"rt": 1844,
		"stimulus": "<span style=\"font-size:30px; font-family: monospace\">colorida</span>",
		"response": " ",
		"trial": "prac-sent",
		"word": "colorida",
		"trial_type": "html-keyboard-response",
		"trial_index": 12,
		"time_elapsed": 114238,
		"internal_node_id": "0.0-1.0-1.9"
	},
	{
		"rt": 1559,
		"stimulus": "<span style=\"font-size:30px; font-family: monospace\">caiu</span>",
		"response": " ",
		"trial": "prac-sent",
		"word": "caiu",
		"trial_type": "html-keyboard-response",
		"trial_index": 13,
		"time_elapsed": 116062,
		"internal_node_id": "0.0-1.0-1.10"
	},
	{
		"rt": 1089,
		"stimulus": "<span style=\"font-size:30px; font-family: monospace\">da</span>",
		"response": " ",
		"trial": "prac-sent",
		"word": "da",
		"trial_type": "html-keyboard-response",
		"trial_index": 14,
		"time_elapsed": 117406,
		"internal_node_id": "0.0-1.0-1.11"
	},
	{
		"rt": 1275,
		"stimulus": "<span style=\"font-size:30px; font-family: monospace\">mesa</span>",
		"response": " ",
		"trial": "prac-sent",
		"word": "mesa",
		"trial_type": "html-keyboard-response",
		"trial_index": 15,
		"time_elapsed": 118939,
		"internal_node_id": "0.0-1.0-1.12"
	},
	{
		"rt": 1104,
		"stimulus": "<span style=\"font-size:30px; font-family: monospace\">de</span>",
		"response": " ",
		"trial": "prac-sent",
		"word": "de",
		"trial_type": "html-keyboard-response",
		"trial_index": 16,
		"time_elapsed": 120305,
		"internal_node_id": "0.0-1.0-1.13"
	},
	{
		"rt": 1434,
		"stimulus": "<span style=\"font-size:30px; font-family: monospace\">jantar.</span>",
		"response": " ",
		"trial": "prac-comp",
		"word": "jantar.",
		"trial_type": "html-keyboard-response",
		"trial_index": 17,
		"time_elapsed": 121997,
		"internal_node_id": "0.0-1.0-1.14"
	},
	{
		"rt": 13859,
		"stimulus": "<span style=\"font-size:30px; font-family: monospace\">A caneca permaneceu na mesa?</span>",
		"response": "n",
		"question": "A caneca permaneceu na mesa?",
		"answer": "não",
		"trial": "prac-comp",
		"trial_type": "html-keyboard-response",
		"trial_index": 18,
		"time_elapsed": 136109,
		"internal_node_id": "0.0-1.0-2.14-0.14",
		"accuracy": false
	},
	{
		"view_history": [
			{
				"page_index": 0,
				"viewing_time": 19625
			}
		],
		"rt": 19625,
		"trial_type": "instructions",
		"trial_index": 19,
		"time_elapsed": 156235,
		"internal_node_id": "0.0-2.0"
	},
	{
		"rt": null,
		"stimulus": "<span style= \"font-size:30px; font-family: monospace\">+</span>",
		"response": null,
		"trial_part": "fixation",
		"trial_type": "html-keyboard-response",
		"trial_index": 20,
		"time_elapsed": 157353,
		"internal_node_id": "0.0-3.0-0.0-0.0"
	},
	{
		"rt": 2529,
		"stimulus": "<span style=\"font-size:30px; font-family: monospace\">Barulho</span>",
		"response": " ",
		"trial": "exp-sent",
		"word": "Barulho",
		"trial_type": "html-keyboard-response",
		"trial_index": 21,
		"time_elapsed": 160145,
		"internal_node_id": "0.0-3.0-1.0"
	},
	{
		"rt": 1235,
		"stimulus": "<span style=\"font-size:30px; font-family: monospace\">de</span>",
		"response": " ",
		"trial": "exp-sent",
		"word": "de",
		"trial_type": "html-keyboard-response",
		"trial_index": 22,
		"time_elapsed": 161634,
		"internal_node_id": "0.0-3.0-1.1"
	},
	{
		"rt": 1314,
		"stimulus": "<span style=\"font-size:30px; font-family: monospace\">carros</span>",
		"response": " ",
		"trial": "exp-sent",
		"word": "carros",
		"trial_type": "html-keyboard-response",
		"trial_index": 23,
		"time_elapsed": 163211,
		"internal_node_id": "0.0-3.0-1.2"
	},
	{
		"rt": 1023,
		"stimulus": "<span style=\"font-size:30px; font-family: monospace\">é</span>",
		"response": " ",
		"trial": "exp-sent",
		"word": "é",
		"trial_type": "html-keyboard-response",
		"trial_index": 24,
		"time_elapsed": 164487,
		"internal_node_id": "0.0-3.0-1.3"
	},
	{
		"rt": 1745,
		"stimulus": "<span style=\"font-size:30px; font-family: monospace\">irritante</span>",
		"response": " ",
		"trial": "exp-sent",
		"word": "irritante",
		"trial_type": "html-keyboard-response",
		"trial_index": 25,
		"time_elapsed": 166495,
		"internal_node_id": "0.0-3.0-1.4"
	},
	{
		"rt": 996,
		"stimulus": "<span style=\"font-size:30px; font-family: monospace\">para</span>",
		"response": " ",
		"trial": "exp-sent",
		"word": "para",
		"trial_type": "html-keyboard-response",
		"trial_index": 26,
		"time_elapsed": 167744,
		"internal_node_id": "0.0-3.0-1.5"
	},
	{
		"rt": 984,
		"stimulus": "<span style=\"font-size:30px; font-family: monospace\">a</span>",
		"response": " ",
		"trial": "exp-sent",
		"word": "a",
		"trial_type": "html-keyboard-response",
		"trial_index": 27,
		"time_elapsed": 168980,
		"internal_node_id": "0.0-3.0-1.6"
	},
	{
		"rt": 2681,
		"stimulus": "<span style=\"font-size:30px; font-family: monospace\">moça.</span>",
		"response": " ",
		"trial": "exp-sent",
		"word": "moça.",
		"trial_type": "html-keyboard-response",
		"trial_index": 28,
		"time_elapsed": 171918,
		"internal_node_id": "0.0-3.0-1.7"
	},
	{
		"rt": null,
		"stimulus": "<span style= \"font-size:30px; font-family: monospace\">+</span>",
		"response": null,
		"trial_part": "fixation",
		"trial_type": "html-keyboard-response",
		"trial_index": 29,
		"time_elapsed": 173188,
		"internal_node_id": "0.0-3.0-0.8-0.8"
	},
	{
		"rt": 3085,
		"stimulus": "<span style=\"font-size:30px; font-family: monospace\">A</span>",
		"response": " ",
		"trial": "exp-sent",
		"word": "A",
		"trial_type": "html-keyboard-response",
		"trial_index": 30,
		"time_elapsed": 176528,
		"internal_node_id": "0.0-3.0-1.8"
	},
	{
		"rt": 1281,
		"stimulus": "<span style=\"font-size:30px; font-family: monospace\">loja</span>",
		"response": " ",
		"trial": "exp-sent",
		"word": "loja",
		"trial_type": "html-keyboard-response",
		"trial_index": 31,
		"time_elapsed": 178072,
		"internal_node_id": "0.0-3.0-1.9"
	},
	{
		"rt": 1081,
		"stimulus": "<span style=\"font-size:30px; font-family: monospace\">também</span>",
		"response": " ",
		"trial": "exp-sent",
		"word": "também",
		"trial_type": "html-keyboard-response",
		"trial_index": 32,
		"time_elapsed": 179420,
		"internal_node_id": "0.0-3.0-1.10"
	},
	{
		"rt": 1164,
		"stimulus": "<span style=\"font-size:30px; font-family: monospace\">vende</span>",
		"response": " ",
		"trial": "exp-sent",
		"word": "vende",
		"trial_type": "html-keyboard-response",
		"trial_index": 33,
		"time_elapsed": 180837,
		"internal_node_id": "0.0-3.0-1.11"
	},
	{
		"rt": 1662,
		"stimulus": "<span style=\"font-size:30px; font-family: monospace\">taça</span>",
		"response": " ",
		"trial": "exp-sent",
		"word": "taça",
		"trial_type": "html-keyboard-response",
		"trial_index": 34,
		"time_elapsed": 182751,
		"internal_node_id": "0.0-3.0-1.12"
	},
	{
		"rt": 886,
		"stimulus": "<span style=\"font-size:30px; font-family: monospace\">de</span>",
		"response": " ",
		"trial": "exp-sent",
		"word": "de",
		"trial_type": "html-keyboard-response",
		"trial_index": 35,
		"time_elapsed": 183891,
		"internal_node_id": "0.0-3.0-1.13"
	},
	{
		"rt": 1329,
		"stimulus": "<span style=\"font-size:30px; font-family: monospace\">vinho</span>",
		"response": " ",
		"trial": "exp-sent",
		"word": "vinho",
		"trial_type": "html-keyboard-response",
		"trial_index": 36,
		"time_elapsed": 185483,
		"internal_node_id": "0.0-3.0-1.14"
	},
	{
		"rt": 988,
		"stimulus": "<span style=\"font-size:30px; font-family: monospace\">e</span>",
		"response": " ",
		"trial": "exp-sent",
		"word": "e",
		"trial_type": "html-keyboard-response",
		"trial_index": 37,
		"time_elapsed": 186728,
		"internal_node_id": "0.0-3.0-1.15"
	},
	{
		"rt": 7980,
		"stimulus": "<span style=\"font-size:30px; font-family: monospace\">espumante.</span>",
		"response": " ",
		"trial": "exp-sent",
		"word": "espumante.",
		"trial_type": "html-keyboard-response",
		"trial_index": 38,
		"time_elapsed": 194958,
		"internal_node_id": "0.0-3.0-1.16"
	},
	{
		"rt": null,
		"stimulus": "<span style= \"font-size:30px; font-family: monospace\">+</span>",
		"response": null,
		"trial_part": "fixation",
		"trial_type": "html-keyboard-response",
		"trial_index": 39,
		"time_elapsed": 196228,
		"internal_node_id": "0.0-3.0-0.17-0.17"
	},
	{
		"rt": 1557,
		"stimulus": "<span style=\"font-size:30px; font-family: monospace\">A</span>",
		"response": " ",
		"trial": "exp-sent",
		"word": "A",
		"trial_type": "html-keyboard-response",
		"trial_index": 40,
		"time_elapsed": 198039,
		"internal_node_id": "0.0-3.0-1.17"
	},
	{
		"rt": 1458,
		"stimulus": "<span style=\"font-size:30px; font-family: monospace\">bruxa</span>",
		"response": " ",
		"trial": "exp-sent",
		"word": "bruxa",
		"trial_type": "html-keyboard-response",
		"trial_index": 41,
		"time_elapsed": 199756,
		"internal_node_id": "0.0-3.0-1.18"
	},
	{
		"rt": 1169,
		"stimulus": "<span style=\"font-size:30px; font-family: monospace\">tinha</span>",
		"response": " ",
		"trial": "exp-sent",
		"word": "tinha",
		"trial_type": "html-keyboard-response",
		"trial_index": 42,
		"time_elapsed": 201187,
		"internal_node_id": "0.0-3.0-1.19"
	},
	{
		"rt": 1062,
		"stimulus": "<span style=\"font-size:30px; font-family: monospace\">uma</span>",
		"response": " ",
		"trial": "exp-sent",
		"word": "uma",
		"trial_type": "html-keyboard-response",
		"trial_index": 43,
		"time_elapsed": 202512,
		"internal_node_id": "0.0-3.0-1.20"
	},
	{
		"rt": 1236,
		"stimulus": "<span style=\"font-size:30px; font-family: monospace\">vassoura</span>",
		"response": " ",
		"trial": "exp-sent",
		"word": "vassoura",
		"trial_type": "html-keyboard-response",
		"trial_index": 44,
		"time_elapsed": 204015,
		"internal_node_id": "0.0-3.0-1.21"
	},
	{
		"rt": 884,
		"stimulus": "<span style=\"font-size:30px; font-family: monospace\">e</span>",
		"response": " ",
		"trial": "exp-sent",
		"word": "e",
		"trial_type": "html-keyboard-response",
		"trial_index": 45,
		"time_elapsed": 205162,
		"internal_node_id": "0.0-3.0-1.22"
	},
	{
		"rt": 972,
		"stimulus": "<span style=\"font-size:30px; font-family: monospace\">um</span>",
		"response": " ",
		"trial": "exp-sent",
		"word": "um",
		"trial_type": "html-keyboard-response",
		"trial_index": 46,
		"time_elapsed": 206398,
		"internal_node_id": "0.0-3.0-1.23"
	},
	{
		"rt": 2434,
		"stimulus": "<span style=\"font-size:30px; font-family: monospace\">gato.</span>",
		"response": " ",
		"trial": "exp-sent",
		"word": "gato.",
		"trial_type": "html-keyboard-response",
		"trial_index": 47,
		"time_elapsed": 209087,
		"internal_node_id": "0.0-3.0-1.24"
	},
	{
		"rt": null,
		"stimulus": "<span style= \"font-size:30px; font-family: monospace\">+</span>",
		"response": null,
		"trial_part": "fixation",
		"trial_type": "html-keyboard-response",
		"trial_index": 48,
		"time_elapsed": 210354,
		"internal_node_id": "0.0-3.0-0.25-0.25"
	},
	{
		"rt": 84,
		"stimulus": "<span style=\"font-size:30px; font-family: monospace\">Eu</span>",
		"response": " ",
		"trial": "exp-sent",
		"word": "Eu",
		"trial_type": "html-keyboard-response",
		"trial_index": 49,
		"time_elapsed": 210699,
		"internal_node_id": "0.0-3.0-1.25"
	},
	{
		"rt": 986,
		"stimulus": "<span style=\"font-size:30px; font-family: monospace\">me</span>",
		"response": " ",
		"trial": "exp-sent",
		"word": "me",
		"trial_type": "html-keyboard-response",
		"trial_index": 50,
		"time_elapsed": 211949,
		"internal_node_id": "0.0-3.0-1.26"
	},
	{
		"rt": 1021,
		"stimulus": "<span style=\"font-size:30px; font-family: monospace\">divirto</span>",
		"response": " ",
		"trial": "exp-sent",
		"word": "divirto",
		"trial_type": "html-keyboard-response",
		"trial_index": 51,
		"time_elapsed": 213223,
		"internal_node_id": "0.0-3.0-1.27"
	},
	{
		"rt": 724,
		"stimulus": "<span style=\"font-size:30px; font-family: monospace\">em</span>",
		"response": " ",
		"trial": "exp-sent",
		"word": "em",
		"trial_type": "html-keyboard-response",
		"trial_index": 52,
		"time_elapsed": 214199,
		"internal_node_id": "0.0-3.0-1.28"
	},
	{
		"rt": 934,
		"stimulus": "<span style=\"font-size:30px; font-family: monospace\">festas</span>",
		"response": " ",
		"trial": "exp-sent",
		"word": "festas",
		"trial_type": "html-keyboard-response",
		"trial_index": 53,
		"time_elapsed": 215384,
		"internal_node_id": "0.0-3.0-1.29"
	},
	{
		"rt": 707,
		"stimulus": "<span style=\"font-size:30px; font-family: monospace\">de</span>",
		"response": " ",
		"trial": "exp-sent",
		"word": "de",
		"trial_type": "html-keyboard-response",
		"trial_index": 54,
		"time_elapsed": 216354,
		"internal_node_id": "0.0-3.0-1.30"
	},
	{
		"rt": 971,
		"stimulus": "<span style=\"font-size:30px; font-family: monospace\">criança.</span>",
		"response": " ",
		"trial": "exp-sent",
		"word": "criança.",
		"trial_type": "html-keyboard-response",
		"trial_index": 55,
		"time_elapsed": 217582,
		"internal_node_id": "0.0-3.0-1.31"
	},
	{
		"rt": null,
		"stimulus": "<span style= \"font-size:30px; font-family: monospace\">+</span>",
		"response": null,
		"trial_part": "fixation",
		"trial_type": "html-keyboard-response",
		"trial_index": 56,
		"time_elapsed": 218854,
		"internal_node_id": "0.0-3.0-0.32-0.32"
	},
	{
		"rt": 789,
		"stimulus": "<span style=\"font-size:30px; font-family: monospace\">A</span>",
		"response": " ",
		"trial": "exp-sent",
		"word": "A",
		"trial_type": "html-keyboard-response",
		"trial_index": 57,
		"time_elapsed": 219901,
		"internal_node_id": "0.0-3.0-1.32"
	},
	{
		"rt": 922,
		"stimulus": "<span style=\"font-size:30px; font-family: monospace\">janela</span>",
		"response": " ",
		"trial": "exp-sent",
		"word": "janela",
		"trial_type": "html-keyboard-response",
		"trial_index": 58,
		"time_elapsed": 221082,
		"internal_node_id": "0.0-3.0-1.33"
	},
	{
		"rt": 923,
		"stimulus": "<span style=\"font-size:30px; font-family: monospace\">alta</span>",
		"response": " ",
		"trial": "exp-sent",
		"word": "alta",
		"trial_type": "html-keyboard-response",
		"trial_index": 59,
		"time_elapsed": 222261,
		"internal_node_id": "0.0-3.0-1.34"
	},
	{
		"rt": 791,
		"stimulus": "<span style=\"font-size:30px; font-family: monospace\">estava</span>",
		"response": " ",
		"trial": "exp-sent",
		"word": "estava",
		"trial_type": "html-keyboard-response",
		"trial_index": 60,
		"time_elapsed": 223307,
		"internal_node_id": "0.0-3.0-1.35"
	},
	{
		"rt": 986,
		"stimulus": "<span style=\"font-size:30px; font-family: monospace\">quebrada</span>",
		"response": " ",
		"trial": "exp-sent",
		"word": "quebrada",
		"trial_type": "html-keyboard-response",
		"trial_index": 61,
		"time_elapsed": 224557,
		"internal_node_id": "0.0-3.0-1.36"
	},
	{
		"rt": 879,
		"stimulus": "<span style=\"font-size:30px; font-family: monospace\">desde</span>",
		"response": " ",
		"trial": "exp-sent",
		"word": "desde",
		"trial_type": "html-keyboard-response",
		"trial_index": 62,
		"time_elapsed": 225698,
		"internal_node_id": "0.0-3.0-1.37"
	},
	{
		"rt": 1120,
		"stimulus": "<span style=\"font-size:30px; font-family: monospace\">ontem.</span>",
		"response": " ",
		"trial": "comp",
		"word": "ontem.",
		"trial_type": "html-keyboard-response",
		"trial_index": 63,
		"time_elapsed": 227073,
		"internal_node_id": "0.0-3.0-1.38"
	},
	{
		"rt": 9557,
		"stimulus": "<span style=\"font-size:30px; font-family: monospace\">A janela alta estava quebrada?</span>",
		"response": "s",
		"question": "A janela alta estava quebrada?",
		"answer": "sim",
		"trial": "comp",
		"trial_type": "html-keyboard-response",
		"trial_index": 64,
		"time_elapsed": 236899,
		"internal_node_id": "0.0-3.0-2.38-0.38",
		"accuracy": false
	},
	{
		"rt": null,
		"stimulus": "<span style= \"font-size:30px; font-family: monospace\">+</span>",
		"response": null,
		"trial_part": "fixation",
		"trial_type": "html-keyboard-response",
		"trial_index": 65,
		"time_elapsed": 238419,
		"internal_node_id": "0.0-3.0-0.39-0.39"
	},
	{
		"rt": 1846,
		"stimulus": "<span style=\"font-size:30px; font-family: monospace\">O</span>",
		"response": " ",
		"trial": "exp-sent",
		"word": "O",
		"trial_type": "html-keyboard-response",
		"trial_index": 66,
		"time_elapsed": 240529,
		"internal_node_id": "0.0-3.0-1.39"
	},
	{
		"rt": 1001,
		"stimulus": "<span style=\"font-size:30px; font-family: monospace\">texto</span>",
		"response": " ",
		"trial": "exp-sent",
		"word": "texto",
		"trial_type": "html-keyboard-response",
		"trial_index": 67,
		"time_elapsed": 241781,
		"internal_node_id": "0.0-3.0-1.40"
	},
	{
		"rt": 1205,
		"stimulus": "<span style=\"font-size:30px; font-family: monospace\">trazia</span>",
		"response": " ",
		"trial": "exp-sent",
		"word": "trazia",
		"trial_type": "html-keyboard-response",
		"trial_index": 68,
		"time_elapsed": 243253,
		"internal_node_id": "0.0-3.0-1.41"
	},
	{
		"rt": 753,
		"stimulus": "<span style=\"font-size:30px; font-family: monospace\">um</span>",
		"response": " ",
		"trial": "exp-sent",
		"word": "um",
		"trial_type": "html-keyboard-response",
		"trial_index": 69,
		"time_elapsed": 244266,
		"internal_node_id": "0.0-3.0-1.42"
	},
	{
		"rt": 1041,
		"stimulus": "<span style=\"font-size:30px; font-family: monospace\">argumento</span>",
		"response": " ",
		"trial": "exp-sent",
		"word": "argumento",
		"trial_type": "html-keyboard-response",
		"trial_index": 70,
		"time_elapsed": 245568,
		"internal_node_id": "0.0-3.0-1.43"
	},
	{
		"rt": 1240,
		"stimulus": "<span style=\"font-size:30px; font-family: monospace\">central</span>",
		"response": " ",
		"trial": "exp-sent",
		"word": "central",
		"trial_type": "html-keyboard-response",
		"trial_index": 71,
		"time_elapsed": 247068,
		"internal_node_id": "0.0-3.0-1.44"
	},
	{
		"rt": 864,
		"stimulus": "<span style=\"font-size:30px; font-family: monospace\">para</span>",
		"response": " ",
		"trial": "exp-sent",
		"word": "para",
		"trial_type": "html-keyboard-response",
		"trial_index": 72,
		"time_elapsed": 248189,
		"internal_node_id": "0.0-3.0-1.45"
	},
	{
		"rt": 836,
		"stimulus": "<span style=\"font-size:30px; font-family: monospace\">a</span>",
		"response": " ",
		"trial": "exp-sent",
		"word": "a",
		"trial_type": "html-keyboard-response",
		"trial_index": 73,
		"time_elapsed": 249278,
		"internal_node_id": "0.0-3.0-1.46"
	},
	{
		"rt": 1136,
		"stimulus": "<span style=\"font-size:30px; font-family: monospace\">conversa.</span>",
		"response": " ",
		"trial": "exp-sent",
		"word": "conversa.",
		"trial_type": "html-keyboard-response",
		"trial_index": 74,
		"time_elapsed": 250677,
		"internal_node_id": "0.0-3.0-1.47"
	},
	{
		"rt": null,
		"stimulus": "<span style= \"font-size:30px; font-family: monospace\">+</span>",
		"response": null,
		"trial_part": "fixation",
		"trial_type": "html-keyboard-response",
		"trial_index": 75,
		"time_elapsed": 251958,
		"internal_node_id": "0.0-3.0-0.48-0.48"
	},
	{
		"rt": 879,
		"stimulus": "<span style=\"font-size:30px; font-family: monospace\">Ontem</span>",
		"response": " ",
		"trial": "exp-sent",
		"word": "Ontem",
		"trial_type": "html-keyboard-response",
		"trial_index": 76,
		"time_elapsed": 253104,
		"internal_node_id": "0.0-3.0-1.48"
	},
	{
		"rt": 662,
		"stimulus": "<span style=\"font-size:30px; font-family: monospace\">a</span>",
		"response": " ",
		"trial": "exp-sent",
		"word": "a",
		"trial_type": "html-keyboard-response",
		"trial_index": 77,
		"time_elapsed": 254018,
		"internal_node_id": "0.0-3.0-1.49"
	},
	{
		"rt": 904,
		"stimulus": "<span style=\"font-size:30px; font-family: monospace\">temperatura</span>",
		"response": " ",
		"trial": "exp-sent",
		"word": "temperatura",
		"trial_type": "html-keyboard-response",
		"trial_index": 78,
		"time_elapsed": 255180,
		"internal_node_id": "0.0-3.0-1.50"
	},
	{
		"rt": 729,
		"stimulus": "<span style=\"font-size:30px; font-family: monospace\">estava</span>",
		"response": " ",
		"trial": "exp-sent",
		"word": "estava",
		"trial_type": "html-keyboard-response",
		"trial_index": 79,
		"time_elapsed": 256171,
		"internal_node_id": "0.0-3.0-1.51"
	},
	{
		"rt": 1226,
		"stimulus": "<span style=\"font-size:30px; font-family: monospace\">amena</span>",
		"response": " ",
		"trial": "exp-sent",
		"word": "amena",
		"trial_type": "html-keyboard-response",
		"trial_index": 80,
		"time_elapsed": 257653,
		"internal_node_id": "0.0-3.0-1.52"
	},
	{
		"rt": 843,
		"stimulus": "<span style=\"font-size:30px; font-family: monospace\">durante</span>",
		"response": " ",
		"trial": "exp-sent",
		"word": "durante",
		"trial_type": "html-keyboard-response",
		"trial_index": 81,
		"time_elapsed": 258748,
		"internal_node_id": "0.0-3.0-1.53"
	},
	{
		"rt": 990,
		"stimulus": "<span style=\"font-size:30px; font-family: monospace\">o</span>",
		"response": " ",
		"trial": "exp-sent",
		"word": "o",
		"trial_type": "html-keyboard-response",
		"trial_index": 82,
		"time_elapsed": 260000,
		"internal_node_id": "0.0-3.0-1.54"
	},
	{
		"rt": 1459,
		"stimulus": "<span style=\"font-size:30px; font-family: monospace\">dia.</span>",
		"response": " ",
		"trial": "exp-sent",
		"word": "dia.",
		"trial_type": "html-keyboard-response",
		"trial_index": 83,
		"time_elapsed": 261713,
		"internal_node_id": "0.0-3.0-1.55"
	},
	{
		"rt": null,
		"stimulus": "<span style= \"font-size:30px; font-family: monospace\">+</span>",
		"response": null,
		"trial_part": "fixation",
		"trial_type": "html-keyboard-response",
		"trial_index": 84,
		"time_elapsed": 262979,
		"internal_node_id": "0.0-3.0-0.56-0.56"
	},
	{
		"rt": 1232,
		"stimulus": "<span style=\"font-size:30px; font-family: monospace\">Havia</span>",
		"response": " ",
		"trial": "exp-sent",
		"word": "Havia",
		"trial_type": "html-keyboard-response",
		"trial_index": 85,
		"time_elapsed": 264471,
		"internal_node_id": "0.0-3.0-1.56"
	},
	{
		"rt": 1370,
		"stimulus": "<span style=\"font-size:30px; font-family: monospace\">um</span>",
		"response": " ",
		"trial": "exp-sent",
		"word": "um",
		"trial_type": "html-keyboard-response",
		"trial_index": 86,
		"time_elapsed": 266104,
		"internal_node_id": "0.0-3.0-1.57"
	},
	{
		"rt": 1922,
		"stimulus": "<span style=\"font-size:30px; font-family: monospace\">machucado</span>",
		"response": " ",
		"trial": "exp-sent",
		"word": "machucado",
		"trial_type": "html-keyboard-response",
		"trial_index": 87,
		"time_elapsed": 268292,
		"internal_node_id": "0.0-3.0-1.58"
	},
	{
		"rt": 768,
		"stimulus": "<span style=\"font-size:30px; font-family: monospace\">no</span>",
		"response": " ",
		"trial": "exp-sent",
		"word": "no",
		"trial_type": "html-keyboard-response",
		"trial_index": 88,
		"time_elapsed": 269316,
		"internal_node_id": "0.0-3.0-1.59"
	},
	{
		"rt": 1237,
		"stimulus": "<span style=\"font-size:30px; font-family: monospace\">dedo</span>",
		"response": " ",
		"trial": "exp-sent",
		"word": "dedo",
		"trial_type": "html-keyboard-response",
		"trial_index": 89,
		"time_elapsed": 270807,
		"internal_node_id": "0.0-3.0-1.60"
	},
	{
		"rt": 1099,
		"stimulus": "<span style=\"font-size:30px; font-family: monospace\">da</span>",
		"response": " ",
		"trial": "exp-sent",
		"word": "da",
		"trial_type": "html-keyboard-response",
		"trial_index": 90,
		"time_elapsed": 272162,
		"internal_node_id": "0.0-3.0-1.61"
	},
	{
		"rt": 761,
		"stimulus": "<span style=\"font-size:30px; font-family: monospace\">criança.</span>",
		"response": " ",
		"trial": "exp-sent",
		"word": "criança.",
		"trial_type": "html-keyboard-response",
		"trial_index": 91,
		"time_elapsed": 273189,
		"internal_node_id": "0.0-3.0-1.62"
	},
	{
		"rt": null,
		"stimulus": "<span style= \"font-size:30px; font-family: monospace\">+</span>",
		"response": null,
		"trial_part": "fixation",
		"trial_type": "html-keyboard-response",
		"trial_index": 92,
		"time_elapsed": 274463,
		"internal_node_id": "0.0-3.0-0.63-0.63"
	},
	{
		"rt": 802,
		"stimulus": "<span style=\"font-size:30px; font-family: monospace\">A</span>",
		"response": " ",
		"trial": "exp-sent",
		"word": "A",
		"trial_type": "html-keyboard-response",
		"trial_index": 93,
		"time_elapsed": 275519,
		"internal_node_id": "0.0-3.0-1.63"
	},
	{
		"rt": 1511,
		"stimulus": "<span style=\"font-size:30px; font-family: monospace\">borboleta</span>",
		"response": " ",
		"trial": "exp-sent",
		"word": "borboleta",
		"trial_type": "html-keyboard-response",
		"trial_index": 94,
		"time_elapsed": 277292,
		"internal_node_id": "0.0-3.0-1.64"
	},
	{
		"rt": 1193,
		"stimulus": "<span style=\"font-size:30px; font-family: monospace\">pousou</span>",
		"response": " ",
		"trial": "exp-sent",
		"word": "pousou",
		"trial_type": "html-keyboard-response",
		"trial_index": 95,
		"time_elapsed": 278746,
		"internal_node_id": "0.0-3.0-1.65"
	},
	{
		"rt": 756,
		"stimulus": "<span style=\"font-size:30px; font-family: monospace\">no</span>",
		"response": " ",
		"trial": "exp-sent",
		"word": "no",
		"trial_type": "html-keyboard-response",
		"trial_index": 96,
		"time_elapsed": 279756,
		"internal_node_id": "0.0-3.0-1.66"
	},
	{
		"rt": 833,
		"stimulus": "<span style=\"font-size:30px; font-family: monospace\">ombro</span>",
		"response": " ",
		"trial": "exp-sent",
		"word": "ombro",
		"trial_type": "html-keyboard-response",
		"trial_index": 97,
		"time_elapsed": 280851,
		"internal_node_id": "0.0-3.0-1.67"
	},
	{
		"rt": 1421,
		"stimulus": "<span style=\"font-size:30px; font-family: monospace\">daquela</span>",
		"response": " ",
		"trial": "exp-sent",
		"word": "daquela",
		"trial_type": "html-keyboard-response",
		"trial_index": 98,
		"time_elapsed": 282523,
		"internal_node_id": "0.0-3.0-1.68"
	},
	{
		"rt": 949,
		"stimulus": "<span style=\"font-size:30px; font-family: monospace\">moça.</span>",
		"response": " ",
		"trial": "exp-sent",
		"word": "moça.",
		"trial_type": "html-keyboard-response",
		"trial_index": 99,
		"time_elapsed": 283725,
		"internal_node_id": "0.0-3.0-1.69"
	},
	{
		"rt": null,
		"stimulus": "<span style= \"font-size:30px; font-family: monospace\">+</span>",
		"response": null,
		"trial_part": "fixation",
		"trial_type": "html-keyboard-response",
		"trial_index": 100,
		"time_elapsed": 285002,
		"internal_node_id": "0.0-3.0-0.70-0.70"
	},
	{
		"rt": 818,
		"stimulus": "<span style=\"font-size:30px; font-family: monospace\">Eu</span>",
		"response": " ",
		"trial": "exp-sent",
		"word": "Eu",
		"trial_type": "html-keyboard-response",
		"trial_index": 101,
		"time_elapsed": 286078,
		"internal_node_id": "0.0-3.0-1.70"
	},
	{
		"rt": 923,
		"stimulus": "<span style=\"font-size:30px; font-family: monospace\">quero</span>",
		"response": " ",
		"trial": "exp-sent",
		"word": "quero",
		"trial_type": "html-keyboard-response",
		"trial_index": 102,
		"time_elapsed": 287267,
		"internal_node_id": "0.0-3.0-1.71"
	},
	{
		"rt": 798,
		"stimulus": "<span style=\"font-size:30px; font-family: monospace\">um</span>",
		"response": " ",
		"trial": "exp-sent",
		"word": "um",
		"trial_type": "html-keyboard-response",
		"trial_index": 103,
		"time_elapsed": 288322,
		"internal_node_id": "0.0-3.0-1.72"
	},
	{
		"rt": 1183,
		"stimulus": "<span style=\"font-size:30px; font-family: monospace\">namorado</span>",
		"response": " ",
		"trial": "exp-sent",
		"word": "namorado",
		"trial_type": "html-keyboard-response",
		"trial_index": 104,
		"time_elapsed": 289763,
		"internal_node_id": "0.0-3.0-1.73"
	},
	{
		"rt": 942,
		"stimulus": "<span style=\"font-size:30px; font-family: monospace\">honesto</span>",
		"response": " ",
		"trial": "exp-sent",
		"word": "honesto",
		"trial_type": "html-keyboard-response",
		"trial_index": 105,
		"time_elapsed": 290961,
		"internal_node_id": "0.0-3.0-1.74"
	},
	{
		"rt": 593,
		"stimulus": "<span style=\"font-size:30px; font-family: monospace\">e</span>",
		"response": " ",
		"trial": "exp-sent",
		"word": "e",
		"trial_type": "html-keyboard-response",
		"trial_index": 106,
		"time_elapsed": 291820,
		"internal_node_id": "0.0-3.0-1.75"
	},
	{
		"rt": 1095,
		"stimulus": "<span style=\"font-size:30px; font-family: monospace\">compreensivo.</span>",
		"response": " ",
		"trial": "comp",
		"word": "compreensivo.",
		"trial_type": "html-keyboard-response",
		"trial_index": 107,
		"time_elapsed": 293171,
		"internal_node_id": "0.0-3.0-1.76"
	},
	{
		"rt": 4447,
		"stimulus": "<span style=\"font-size:30px; font-family: monospace\">Eu quero um namorado honesto?</span>",
		"response": "s",
		"question": "Eu quero um namorado honesto?",
		"answer": "sim",
		"trial": "comp",
		"trial_type": "html-keyboard-response",
		"trial_index": 108,
		"time_elapsed": 297871,
		"internal_node_id": "0.0-3.0-2.76-0.76",
		"accuracy": false
	},
	{
		"rt": null,
		"stimulus": "<span style= \"font-size:30px; font-family: monospace\">+</span>",
		"response": null,
		"trial_part": "fixation",
		"trial_type": "html-keyboard-response",
		"trial_index": 109,
		"time_elapsed": 299391,
		"internal_node_id": "0.0-3.0-0.77-0.77"
	},
	{
		"rt": 4091,
		"stimulus": "<span style=\"font-size:30px; font-family: monospace\">A</span>",
		"response": " ",
		"trial": "exp-sent",
		"word": "A",
		"trial_type": "html-keyboard-response",
		"trial_index": 110,
		"time_elapsed": 303744,
		"internal_node_id": "0.0-3.0-1.77"
	},
	{
		"rt": 1279,
		"stimulus": "<span style=\"font-size:30px; font-family: monospace\">motorista</span>",
		"response": " ",
		"trial": "exp-sent",
		"word": "motorista",
		"trial_type": "html-keyboard-response",
		"trial_index": 111,
		"time_elapsed": 305283,
		"internal_node_id": "0.0-3.0-1.78"
	},
	{
		"rt": 707,
		"stimulus": "<span style=\"font-size:30px; font-family: monospace\">fez</span>",
		"response": " ",
		"trial": "exp-sent",
		"word": "fez",
		"trial_type": "html-keyboard-response",
		"trial_index": 112,
		"time_elapsed": 306241,
		"internal_node_id": "0.0-3.0-1.79"
	},
	{
		"rt": 641,
		"stimulus": "<span style=\"font-size:30px; font-family: monospace\">o</span>",
		"response": " ",
		"trial": "exp-sent",
		"word": "o",
		"trial_type": "html-keyboard-response",
		"trial_index": 113,
		"time_elapsed": 307143,
		"internal_node_id": "0.0-3.0-1.80"
	},
	{
		"rt": 877,
		"stimulus": "<span style=\"font-size:30px; font-family: monospace\">retorno</span>",
		"response": " ",
		"trial": "exp-sent",
		"word": "retorno",
		"trial_type": "html-keyboard-response",
		"trial_index": 114,
		"time_elapsed": 308276,
		"internal_node_id": "0.0-3.0-1.81"
	},
	{
		"rt": 638,
		"stimulus": "<span style=\"font-size:30px; font-family: monospace\">com</span>",
		"response": " ",
		"trial": "exp-sent",
		"word": "com",
		"trial_type": "html-keyboard-response",
		"trial_index": 115,
		"time_elapsed": 309168,
		"internal_node_id": "0.0-3.0-1.82"
	},
	{
		"rt": 1007,
		"stimulus": "<span style=\"font-size:30px; font-family: monospace\">cuidado.</span>",
		"response": " ",
		"trial": "exp-sent",
		"word": "cuidado.",
		"trial_type": "html-keyboard-response",
		"trial_index": 116,
		"time_elapsed": 310428,
		"internal_node_id": "0.0-3.0-1.83"
	},
	{
		"rt": null,
		"stimulus": "<span style= \"font-size:30px; font-family: monospace\">+</span>",
		"response": null,
		"trial_part": "fixation",
		"trial_type": "html-keyboard-response",
		"trial_index": 117,
		"time_elapsed": 311694,
		"internal_node_id": "0.0-3.0-0.84-0.84"
	},
	{
		"rt": 112,
		"stimulus": "<span style=\"font-size:30px; font-family: monospace\">Contos</span>",
		"response": " ",
		"trial": "exp-sent",
		"word": "Contos",
		"trial_type": "html-keyboard-response",
		"trial_index": 118,
		"time_elapsed": 312058,
		"internal_node_id": "0.0-3.0-1.84"
	},
	{
		"rt": 1176,
		"stimulus": "<span style=\"font-size:30px; font-family: monospace\">de</span>",
		"response": " ",
		"trial": "exp-sent",
		"word": "de",
		"trial_type": "html-keyboard-response",
		"trial_index": 119,
		"time_elapsed": 313494,
		"internal_node_id": "0.0-3.0-1.85"
	},
	{
		"rt": 1209,
		"stimulus": "<span style=\"font-size:30px; font-family: monospace\">ação</span>",
		"response": " ",
		"trial": "exp-sent",
		"word": "ação",
		"trial_type": "html-keyboard-response",
		"trial_index": 120,
		"time_elapsed": 314956,
		"internal_node_id": "0.0-3.0-1.86"
	},
	{
		"rt": 905,
		"stimulus": "<span style=\"font-size:30px; font-family: monospace\">têm</span>",
		"response": " ",
		"trial": "exp-sent",
		"word": "têm",
		"trial_type": "html-keyboard-response",
		"trial_index": 121,
		"time_elapsed": 316119,
		"internal_node_id": "0.0-3.0-1.87"
	},
	{
		"rt": 1191,
		"stimulus": "<span style=\"font-size:30px; font-family: monospace\">chantagem</span>",
		"response": " ",
		"trial": "exp-sent",
		"word": "chantagem",
		"trial_type": "html-keyboard-response",
		"trial_index": 122,
		"time_elapsed": 317570,
		"internal_node_id": "0.0-3.0-1.88"
	},
	{
		"rt": 878,
		"stimulus": "<span style=\"font-size:30px; font-family: monospace\">e</span>",
		"response": " ",
		"trial": "exp-sent",
		"word": "e",
		"trial_type": "html-keyboard-response",
		"trial_index": 123,
		"time_elapsed": 318706,
		"internal_node_id": "0.0-3.0-1.89"
	},
	{
		"rt": 708,
		"stimulus": "<span style=\"font-size:30px; font-family: monospace\">muita</span>",
		"response": " ",
		"trial": "exp-sent",
		"word": "muita",
		"trial_type": "html-keyboard-response",
		"trial_index": 124,
		"time_elapsed": 319670,
		"internal_node_id": "0.0-3.0-1.90"
	},
	{
		"rt": 926,
		"stimulus": "<span style=\"font-size:30px; font-family: monospace\">luta.</span>",
		"response": " ",
		"trial": "exp-sent",
		"word": "luta.",
		"trial_type": "html-keyboard-response",
		"trial_index": 125,
		"time_elapsed": 320856,
		"internal_node_id": "0.0-3.0-1.91"
	},
	{
		"rt": null,
		"stimulus": "<span style= \"font-size:30px; font-family: monospace\">+</span>",
		"response": null,
		"trial_part": "fixation",
		"trial_type": "html-keyboard-response",
		"trial_index": 126,
		"time_elapsed": 322116,
		"internal_node_id": "0.0-3.0-0.92-0.92"
	},
	{
		"rt": 906,
		"stimulus": "<span style=\"font-size:30px; font-family: monospace\">A</span>",
		"response": " ",
		"trial": "exp-sent",
		"word": "A",
		"trial_type": "html-keyboard-response",
		"trial_index": 127,
		"time_elapsed": 323286,
		"internal_node_id": "0.0-3.0-1.92"
	},
	{
		"rt": 1244,
		"stimulus": "<span style=\"font-size:30px; font-family: monospace\">bisavó</span>",
		"response": " ",
		"trial": "exp-sent",
		"word": "bisavó",
		"trial_type": "html-keyboard-response",
		"trial_index": 128,
		"time_elapsed": 324786,
		"internal_node_id": "0.0-3.0-1.93"
	},
	{
		"rt": 951,
		"stimulus": "<span style=\"font-size:30px; font-family: monospace\">recebeu</span>",
		"response": " ",
		"trial": "exp-sent",
		"word": "recebeu",
		"trial_type": "html-keyboard-response",
		"trial_index": 129,
		"time_elapsed": 326003,
		"internal_node_id": "0.0-3.0-1.94"
	},
	{
		"rt": 755,
		"stimulus": "<span style=\"font-size:30px; font-family: monospace\">um</span>",
		"response": " ",
		"trial": "exp-sent",
		"word": "um",
		"trial_type": "html-keyboard-response",
		"trial_index": 130,
		"time_elapsed": 327012,
		"internal_node_id": "0.0-3.0-1.95"
	},
	{
		"rt": 969,
		"stimulus": "<span style=\"font-size:30px; font-family: monospace\">benefício</span>",
		"response": " ",
		"trial": "exp-sent",
		"word": "benefício",
		"trial_type": "html-keyboard-response",
		"trial_index": 131,
		"time_elapsed": 328245,
		"internal_node_id": "0.0-3.0-1.96"
	},
	{
		"rt": 1029,
		"stimulus": "<span style=\"font-size:30px; font-family: monospace\">temporário</span>",
		"response": " ",
		"trial": "exp-sent",
		"word": "temporário",
		"trial_type": "html-keyboard-response",
		"trial_index": 132,
		"time_elapsed": 329537,
		"internal_node_id": "0.0-3.0-1.97"
	},
	{
		"rt": 690,
		"stimulus": "<span style=\"font-size:30px; font-family: monospace\">do</span>",
		"response": " ",
		"trial": "exp-sent",
		"word": "do",
		"trial_type": "html-keyboard-response",
		"trial_index": 133,
		"time_elapsed": 330480,
		"internal_node_id": "0.0-3.0-1.98"
	},
	{
		"rt": 1191,
		"stimulus": "<span style=\"font-size:30px; font-family: monospace\">governo.</span>",
		"response": " ",
		"trial": "exp-sent",
		"word": "governo.",
		"trial_type": "html-keyboard-response",
		"trial_index": 134,
		"time_elapsed": 331928,
		"internal_node_id": "0.0-3.0-1.99"
	},
	{
		"rt": null,
		"stimulus": "<span style= \"font-size:30px; font-family: monospace\">+</span>",
		"response": null,
		"trial_part": "fixation",
		"trial_type": "html-keyboard-response",
		"trial_index": 135,
		"time_elapsed": 333188,
		"internal_node_id": "0.0-3.0-0.100-0.100"
	},
	{
		"rt": 761,
		"stimulus": "<span style=\"font-size:30px; font-family: monospace\">As</span>",
		"response": " ",
		"trial": "exp-sent",
		"word": "As",
		"trial_type": "html-keyboard-response",
		"trial_index": 136,
		"time_elapsed": 334213,
		"internal_node_id": "0.0-3.0-1.100"
	},
	{
		"rt": 967,
		"stimulus": "<span style=\"font-size:30px; font-family: monospace\">crianças</span>",
		"response": " ",
		"trial": "exp-sent",
		"word": "crianças",
		"trial_type": "html-keyboard-response",
		"trial_index": 137,
		"time_elapsed": 335432,
		"internal_node_id": "0.0-3.0-1.101"
	},
	{
		"rt": 1106,
		"stimulus": "<span style=\"font-size:30px; font-family: monospace\">brincaram</span>",
		"response": " ",
		"trial": "exp-sent",
		"word": "brincaram",
		"trial_type": "html-keyboard-response",
		"trial_index": 138,
		"time_elapsed": 336792,
		"internal_node_id": "0.0-3.0-1.102"
	},
	{
		"rt": 698,
		"stimulus": "<span style=\"font-size:30px; font-family: monospace\">no</span>",
		"response": " ",
		"trial": "exp-sent",
		"word": "no",
		"trial_type": "html-keyboard-response",
		"trial_index": 139,
		"time_elapsed": 337750,
		"internal_node_id": "0.0-3.0-1.103"
	},
	{
		"rt": 1039,
		"stimulus": "<span style=\"font-size:30px; font-family: monospace\">balanço</span>",
		"response": " ",
		"trial": "exp-sent",
		"word": "balanço",
		"trial_type": "html-keyboard-response",
		"trial_index": 140,
		"time_elapsed": 339045,
		"internal_node_id": "0.0-3.0-1.104"
	},
	{
		"rt": 627,
		"stimulus": "<span style=\"font-size:30px; font-family: monospace\">a</span>",
		"response": " ",
		"trial": "exp-sent",
		"word": "a",
		"trial_type": "html-keyboard-response",
		"trial_index": 141,
		"time_elapsed": 339930,
		"internal_node_id": "0.0-3.0-1.105"
	},
	{
		"rt": 910,
		"stimulus": "<span style=\"font-size:30px; font-family: monospace\">tarde</span>",
		"response": " ",
		"trial": "exp-sent",
		"word": "tarde",
		"trial_type": "html-keyboard-response",
		"trial_index": 142,
		"time_elapsed": 341101,
		"internal_node_id": "0.0-3.0-1.106"
	},
	{
		"rt": 955,
		"stimulus": "<span style=\"font-size:30px; font-family: monospace\">toda.</span>",
		"response": " ",
		"trial": "exp-sent",
		"word": "toda.",
		"trial_type": "html-keyboard-response",
		"trial_index": 143,
		"time_elapsed": 342308,
		"internal_node_id": "0.0-3.0-1.107"
	},
	{
		"rt": null,
		"stimulus": "<span style= \"font-size:30px; font-family: monospace\">+</span>",
		"response": null,
		"trial_part": "fixation",
		"trial_type": "html-keyboard-response",
		"trial_index": 144,
		"time_elapsed": 343577,
		"internal_node_id": "0.0-3.0-0.108-0.108"
	},
	{
		"rt": 816,
		"stimulus": "<span style=\"font-size:30px; font-family: monospace\">Ela</span>",
		"response": " ",
		"trial": "exp-sent",
		"word": "Ela",
		"trial_type": "html-keyboard-response",
		"trial_index": 145,
		"time_elapsed": 344651,
		"internal_node_id": "0.0-3.0-1.108"
	},
	{
		"rt": 1082,
		"stimulus": "<span style=\"font-size:30px; font-family: monospace\">gosta</span>",
		"response": " ",
		"trial": "exp-sent",
		"word": "gosta",
		"trial_type": "html-keyboard-response",
		"trial_index": 146,
		"time_elapsed": 345996,
		"internal_node_id": "0.0-3.0-1.109"
	},
	{
		"rt": 915,
		"stimulus": "<span style=\"font-size:30px; font-family: monospace\">de</span>",
		"response": " ",
		"trial": "exp-sent",
		"word": "de",
		"trial_type": "html-keyboard-response",
		"trial_index": 147,
		"time_elapsed": 347166,
		"internal_node_id": "0.0-3.0-1.110"
	},
	{
		"rt": 1154,
		"stimulus": "<span style=\"font-size:30px; font-family: monospace\">comida</span>",
		"response": " ",
		"trial": "exp-sent",
		"word": "comida",
		"trial_type": "html-keyboard-response",
		"trial_index": 148,
		"time_elapsed": 348585,
		"internal_node_id": "0.0-3.0-1.111"
	},
	{
		"rt": 1007,
		"stimulus": "<span style=\"font-size:30px; font-family: monospace\">natural</span>",
		"response": " ",
		"trial": "exp-sent",
		"word": "natural",
		"trial_type": "html-keyboard-response",
		"trial_index": 149,
		"time_elapsed": 349861,
		"internal_node_id": "0.0-3.0-1.112"
	},
	{
		"rt": 825,
		"stimulus": "<span style=\"font-size:30px; font-family: monospace\">no</span>",
		"response": " ",
		"trial": "exp-sent",
		"word": "no",
		"trial_type": "html-keyboard-response",
		"trial_index": 150,
		"time_elapsed": 350941,
		"internal_node_id": "0.0-3.0-1.113"
	},
	{
		"rt": 1033,
		"stimulus": "<span style=\"font-size:30px; font-family: monospace\">almoço.</span>",
		"response": " ",
		"trial": "comp",
		"word": "almoço.",
		"trial_type": "html-keyboard-response",
		"trial_index": 151,
		"time_elapsed": 352230,
		"internal_node_id": "0.0-3.0-1.114"
	},
	{
		"rt": 5348,
		"stimulus": "<span style=\"font-size:30px; font-family: monospace\">Ela gosta de comida natural no almoço?</span>",
		"response": "s",
		"question": "Ela gosta de comida natural no almoço?",
		"answer": "sim",
		"trial": "comp",
		"trial_type": "html-keyboard-response",
		"trial_index": 152,
		"time_elapsed": 357843,
		"internal_node_id": "0.0-3.0-2.114-0.114",
		"accuracy": false
	},
	{
		"rt": null,
		"stimulus": "<span style= \"font-size:30px; font-family: monospace\">+</span>",
		"response": null,
		"trial_part": "fixation",
		"trial_type": "html-keyboard-response",
		"trial_index": 153,
		"time_elapsed": 359356,
		"internal_node_id": "0.0-3.0-0.115-0.115"
	},
	{
		"rt": 3448,
		"stimulus": "<span style=\"font-size:30px; font-family: monospace\">Ganhamos</span>",
		"response": " ",
		"trial": "exp-sent",
		"word": "Ganhamos",
		"trial_type": "html-keyboard-response",
		"trial_index": 154,
		"time_elapsed": 363058,
		"internal_node_id": "0.0-3.0-1.115"
	},
	{
		"rt": 1546,
		"stimulus": "<span style=\"font-size:30px; font-family: monospace\">passagem</span>",
		"response": " ",
		"trial": "exp-sent",
		"word": "passagem",
		"trial_type": "html-keyboard-response",
		"trial_index": 155,
		"time_elapsed": 364870,
		"internal_node_id": "0.0-3.0-1.116"
	},
	{
		"rt": 798,
		"stimulus": "<span style=\"font-size:30px; font-family: monospace\">para</span>",
		"response": " ",
		"trial": "exp-sent",
		"word": "para",
		"trial_type": "html-keyboard-response",
		"trial_index": 156,
		"time_elapsed": 365920,
		"internal_node_id": "0.0-3.0-1.117"
	},
	{
		"rt": 834,
		"stimulus": "<span style=\"font-size:30px; font-family: monospace\">uma</span>",
		"response": " ",
		"trial": "exp-sent",
		"word": "uma",
		"trial_type": "html-keyboard-response",
		"trial_index": 157,
		"time_elapsed": 367006,
		"internal_node_id": "0.0-3.0-1.118"
	},
	{
		"rt": 965,
		"stimulus": "<span style=\"font-size:30px; font-family: monospace\">viagem</span>",
		"response": " ",
		"trial": "exp-sent",
		"word": "viagem",
		"trial_type": "html-keyboard-response",
		"trial_index": 158,
		"time_elapsed": 368221,
		"internal_node_id": "0.0-3.0-1.119"
	},
	{
		"rt": 622,
		"stimulus": "<span style=\"font-size:30px; font-family: monospace\">de</span>",
		"response": " ",
		"trial": "exp-sent",
		"word": "de",
		"trial_type": "html-keyboard-response",
		"trial_index": 159,
		"time_elapsed": 369096,
		"internal_node_id": "0.0-3.0-1.120"
	},
	{
		"rt": 1030,
		"stimulus": "<span style=\"font-size:30px; font-family: monospace\">férias.</span>",
		"response": " ",
		"trial": "exp-sent",
		"word": "férias.",
		"trial_type": "html-keyboard-response",
		"trial_index": 160,
		"time_elapsed": 370383,
		"internal_node_id": "0.0-3.0-1.121"
	},
	{
		"rt": null,
		"stimulus": "<span style= \"font-size:30px; font-family: monospace\">+</span>",
		"response": null,
		"trial_part": "fixation",
		"trial_type": "html-keyboard-response",
		"trial_index": 161,
		"time_elapsed": 371642,
		"internal_node_id": "0.0-3.0-0.122-0.122"
	},
	{
		"rt": 845,
		"stimulus": "<span style=\"font-size:30px; font-family: monospace\">Caiu</span>",
		"response": " ",
		"trial": "exp-sent",
		"word": "Caiu",
		"trial_type": "html-keyboard-response",
		"trial_index": 162,
		"time_elapsed": 372750,
		"internal_node_id": "0.0-3.0-1.122"
	},
	{
		"rt": 2057,
		"stimulus": "<span style=\"font-size:30px; font-family: monospace\">algo</span>",
		"response": " ",
		"trial": "exp-sent",
		"word": "algo",
		"trial_type": "html-keyboard-response",
		"trial_index": 163,
		"time_elapsed": 375063,
		"internal_node_id": "0.0-3.0-1.123"
	},
	{
		"rt": 1164,
		"stimulus": "<span style=\"font-size:30px; font-family: monospace\">no</span>",
		"response": " ",
		"trial": "exp-sent",
		"word": "no",
		"trial_type": "html-keyboard-response",
		"trial_index": 164,
		"time_elapsed": 376493,
		"internal_node_id": "0.0-3.0-1.124"
	},
	{
		"rt": 1260,
		"stimulus": "<span style=\"font-size:30px; font-family: monospace\">meu</span>",
		"response": " ",
		"trial": "exp-sent",
		"word": "meu",
		"trial_type": "html-keyboard-response",
		"trial_index": 165,
		"time_elapsed": 378015,
		"internal_node_id": "0.0-3.0-1.125"
	},
	{
		"rt": 1549,
		"stimulus": "<span style=\"font-size:30px; font-family: monospace\">olho</span>",
		"response": " ",
		"trial": "exp-sent",
		"word": "olho",
		"trial_type": "html-keyboard-response",
		"trial_index": 166,
		"time_elapsed": 379815,
		"internal_node_id": "0.0-3.0-1.126"
	},
	{
		"rt": 777,
		"stimulus": "<span style=\"font-size:30px; font-family: monospace\">ontem</span>",
		"response": " ",
		"trial": "exp-sent",
		"word": "ontem",
		"trial_type": "html-keyboard-response",
		"trial_index": 167,
		"time_elapsed": 380848,
		"internal_node_id": "0.0-3.0-1.127"
	},
	{
		"rt": 703,
		"stimulus": "<span style=\"font-size:30px; font-family: monospace\">de</span>",
		"response": " ",
		"trial": "exp-sent",
		"word": "de",
		"trial_type": "html-keyboard-response",
		"trial_index": 168,
		"time_elapsed": 381805,
		"internal_node_id": "0.0-3.0-1.128"
	},
	{
		"rt": 1411,
		"stimulus": "<span style=\"font-size:30px; font-family: monospace\">tarde.</span>",
		"response": " ",
		"trial": "exp-sent",
		"word": "tarde.",
		"trial_type": "html-keyboard-response",
		"trial_index": 169,
		"time_elapsed": 383474,
		"internal_node_id": "0.0-3.0-1.129"
	},
	{
		"rt": null,
		"stimulus": "<span style= \"font-size:30px; font-family: monospace\">+</span>",
		"response": null,
		"trial_part": "fixation",
		"trial_type": "html-keyboard-response",
		"trial_index": 170,
		"time_elapsed": 384764,
		"internal_node_id": "0.0-3.0-0.130-0.130"
	},
	{
		"rt": 885,
		"stimulus": "<span style=\"font-size:30px; font-family: monospace\">Não</span>",
		"response": " ",
		"trial": "exp-sent",
		"word": "Não",
		"trial_type": "html-keyboard-response",
		"trial_index": 171,
		"time_elapsed": 385903,
		"internal_node_id": "0.0-3.0-1.130"
	},
	{
		"rt": 999,
		"stimulus": "<span style=\"font-size:30px; font-family: monospace\">havia</span>",
		"response": " ",
		"trial": "exp-sent",
		"word": "havia",
		"trial_type": "html-keyboard-response",
		"trial_index": 172,
		"time_elapsed": 387163,
		"internal_node_id": "0.0-3.0-1.131"
	},
	{
		"rt": 878,
		"stimulus": "<span style=\"font-size:30px; font-family: monospace\">mais</span>",
		"response": " ",
		"trial": "exp-sent",
		"word": "mais",
		"trial_type": "html-keyboard-response",
		"trial_index": 173,
		"time_elapsed": 388298,
		"internal_node_id": "0.0-3.0-1.132"
	},
	{
		"rt": 936,
		"stimulus": "<span style=\"font-size:30px; font-family: monospace\">nenhum</span>",
		"response": " ",
		"trial": "exp-sent",
		"word": "nenhum",
		"trial_type": "html-keyboard-response",
		"trial_index": 174,
		"time_elapsed": 389489,
		"internal_node_id": "0.0-3.0-1.133"
	},
	{
		"rt": 1003,
		"stimulus": "<span style=\"font-size:30px; font-family: monospace\">ingresso</span>",
		"response": " ",
		"trial": "exp-sent",
		"word": "ingresso",
		"trial_type": "html-keyboard-response",
		"trial_index": 175,
		"time_elapsed": 390743,
		"internal_node_id": "0.0-3.0-1.134"
	},
	{
		"rt": 640,
		"stimulus": "<span style=\"font-size:30px; font-family: monospace\">para</span>",
		"response": " ",
		"trial": "exp-sent",
		"word": "para",
		"trial_type": "html-keyboard-response",
		"trial_index": 176,
		"time_elapsed": 391644,
		"internal_node_id": "0.0-3.0-1.135"
	},
	{
		"rt": 808,
		"stimulus": "<span style=\"font-size:30px; font-family: monospace\">o</span>",
		"response": " ",
		"trial": "exp-sent",
		"word": "o",
		"trial_type": "html-keyboard-response",
		"trial_index": 177,
		"time_elapsed": 392708,
		"internal_node_id": "0.0-3.0-1.136"
	},
	{
		"rt": 928,
		"stimulus": "<span style=\"font-size:30px; font-family: monospace\">evento.</span>",
		"response": " ",
		"trial": "exp-sent",
		"word": "evento.",
		"trial_type": "html-keyboard-response",
		"trial_index": 178,
		"time_elapsed": 393895,
		"internal_node_id": "0.0-3.0-1.137"
	},
	{
		"rt": null,
		"stimulus": "<span style= \"font-size:30px; font-family: monospace\">+</span>",
		"response": null,
		"trial_part": "fixation",
		"trial_type": "html-keyboard-response",
		"trial_index": 179,
		"time_elapsed": 395155,
		"internal_node_id": "0.0-3.0-0.138-0.138"
	},
	{
		"rt": 695,
		"stimulus": "<span style=\"font-size:30px; font-family: monospace\">A</span>",
		"response": " ",
		"trial": "exp-sent",
		"word": "A",
		"trial_type": "html-keyboard-response",
		"trial_index": 180,
		"time_elapsed": 396102,
		"internal_node_id": "0.0-3.0-1.138"
	},
	{
		"rt": 726,
		"stimulus": "<span style=\"font-size:30px; font-family: monospace\">médica</span>",
		"response": " ",
		"trial": "exp-sent",
		"word": "médica",
		"trial_type": "html-keyboard-response",
		"trial_index": 181,
		"time_elapsed": 397086,
		"internal_node_id": "0.0-3.0-1.139"
	},
	{
		"rt": 992,
		"stimulus": "<span style=\"font-size:30px; font-family: monospace\">descobriu</span>",
		"response": " ",
		"trial": "exp-sent",
		"word": "descobriu",
		"trial_type": "html-keyboard-response",
		"trial_index": 182,
		"time_elapsed": 398343,
		"internal_node_id": "0.0-3.0-1.140"
	},
	{
		"rt": 636,
		"stimulus": "<span style=\"font-size:30px; font-family: monospace\">uma</span>",
		"response": " ",
		"trial": "exp-sent",
		"word": "uma",
		"trial_type": "html-keyboard-response",
		"trial_index": 183,
		"time_elapsed": 399241,
		"internal_node_id": "0.0-3.0-1.141"
	},
	{
		"rt": 913,
		"stimulus": "<span style=\"font-size:30px; font-family: monospace\">cura</span>",
		"response": " ",
		"trial": "exp-sent",
		"word": "cura",
		"trial_type": "html-keyboard-response",
		"trial_index": 184,
		"time_elapsed": 400411,
		"internal_node_id": "0.0-3.0-1.142"
	},
	{
		"rt": 898,
		"stimulus": "<span style=\"font-size:30px; font-family: monospace\">para</span>",
		"response": " ",
		"trial": "exp-sent",
		"word": "para",
		"trial_type": "html-keyboard-response",
		"trial_index": 185,
		"time_elapsed": 401574,
		"internal_node_id": "0.0-3.0-1.143"
	},
	{
		"rt": 604,
		"stimulus": "<span style=\"font-size:30px; font-family: monospace\">a</span>",
		"response": " ",
		"trial": "exp-sent",
		"word": "a",
		"trial_type": "html-keyboard-response",
		"trial_index": 186,
		"time_elapsed": 402432,
		"internal_node_id": "0.0-3.0-1.144"
	},
	{
		"rt": 1286,
		"stimulus": "<span style=\"font-size:30px; font-family: monospace\">doença.</span>",
		"response": " ",
		"trial": "exp-sent",
		"word": "doença.",
		"trial_type": "html-keyboard-response",
		"trial_index": 187,
		"time_elapsed": 403975,
		"internal_node_id": "0.0-3.0-1.145"
	},
	{
		"rt": null,
		"stimulus": "<span style= \"font-size:30px; font-family: monospace\">+</span>",
		"response": null,
		"trial_part": "fixation",
		"trial_type": "html-keyboard-response",
		"trial_index": 188,
		"time_elapsed": 405247,
		"internal_node_id": "0.0-3.0-0.146-0.146"
	},
	{
		"rt": 1335,
		"stimulus": "<span style=\"font-size:30px; font-family: monospace\">O</span>",
		"response": " ",
		"trial": "exp-sent",
		"word": "O",
		"trial_type": "html-keyboard-response",
		"trial_index": 189,
		"time_elapsed": 406839,
		"internal_node_id": "0.0-3.0-1.146"
	},
	{
		"rt": 723,
		"stimulus": "<span style=\"font-size:30px; font-family: monospace\">menino</span>",
		"response": " ",
		"trial": "exp-sent",
		"word": "menino",
		"trial_type": "html-keyboard-response",
		"trial_index": 190,
		"time_elapsed": 407825,
		"internal_node_id": "0.0-3.0-1.147"
	},
	{
		"rt": 851,
		"stimulus": "<span style=\"font-size:30px; font-family: monospace\">riscou</span>",
		"response": " ",
		"trial": "exp-sent",
		"word": "riscou",
		"trial_type": "html-keyboard-response",
		"trial_index": 191,
		"time_elapsed": 408941,
		"internal_node_id": "0.0-3.0-1.148"
	},
	{
		"rt": 734,
		"stimulus": "<span style=\"font-size:30px; font-family: monospace\">o</span>",
		"response": " ",
		"trial": "exp-sent",
		"word": "o",
		"trial_type": "html-keyboard-response",
		"trial_index": 192,
		"time_elapsed": 409932,
		"internal_node_id": "0.0-3.0-1.149"
	},
	{
		"rt": 1282,
		"stimulus": "<span style=\"font-size:30px; font-family: monospace\">caderno</span>",
		"response": " ",
		"trial": "exp-sent",
		"word": "caderno",
		"trial_type": "html-keyboard-response",
		"trial_index": 193,
		"time_elapsed": 411475,
		"internal_node_id": "0.0-3.0-1.150"
	},
	{
		"rt": 659,
		"stimulus": "<span style=\"font-size:30px; font-family: monospace\">com</span>",
		"response": " ",
		"trial": "exp-sent",
		"word": "com",
		"trial_type": "html-keyboard-response",
		"trial_index": 194,
		"time_elapsed": 412394,
		"internal_node_id": "0.0-3.0-1.151"
	},
	{
		"rt": 672,
		"stimulus": "<span style=\"font-size:30px; font-family: monospace\">a</span>",
		"response": " ",
		"trial": "exp-sent",
		"word": "a",
		"trial_type": "html-keyboard-response",
		"trial_index": 195,
		"time_elapsed": 413331,
		"internal_node_id": "0.0-3.0-1.152"
	},
	{
		"rt": 951,
		"stimulus": "<span style=\"font-size:30px; font-family: monospace\">caneta.</span>",
		"response": " ",
		"trial": "comp",
		"word": "caneta.",
		"trial_type": "html-keyboard-response",
		"trial_index": 196,
		"time_elapsed": 414542,
		"internal_node_id": "0.0-3.0-1.153"
	},
	{
		"rt": 13688,
		"stimulus": "<span style=\"font-size:30px; font-family: monospace\">O menino riscou a parede com a caneta?</span>",
		"response": "s",
		"question": "O menino riscou a parede com a caneta?",
		"answer": "não",
		"trial": "comp",
		"trial_type": "html-keyboard-response",
		"trial_index": 197,
		"time_elapsed": 428489,
		"internal_node_id": "0.0-3.0-2.153-0.153",
		"accuracy": false
	},
	{
		"rt": null,
		"stimulus": "<span style= \"font-size:30px; font-family: monospace\">+</span>",
		"response": null,
		"trial_part": "fixation",
		"trial_type": "html-keyboard-response",
		"trial_index": 198,
		"time_elapsed": 430005,
		"internal_node_id": "0.0-3.0-0.154-0.154"
	},
	{
		"rt": 1008,
		"stimulus": "<span style=\"font-size:30px; font-family: monospace\">A</span>",
		"response": " ",
		"trial": "exp-sent",
		"word": "A",
		"trial_type": "html-keyboard-response",
		"trial_index": 199,
		"time_elapsed": 431270,
		"internal_node_id": "0.0-3.0-1.154"
	},
	{
		"rt": 693,
		"stimulus": "<span style=\"font-size:30px; font-family: monospace\">senhora</span>",
		"response": " ",
		"trial": "exp-sent",
		"word": "senhora",
		"trial_type": "html-keyboard-response",
		"trial_index": 200,
		"time_elapsed": 432226,
		"internal_node_id": "0.0-3.0-1.155"
	},
	{
		"rt": 1467,
		"stimulus": "<span style=\"font-size:30px; font-family: monospace\">cumprimentou</span>",
		"response": " ",
		"trial": "exp-sent",
		"word": "cumprimentou",
		"trial_type": "html-keyboard-response",
		"trial_index": 201,
		"time_elapsed": 433947,
		"internal_node_id": "0.0-3.0-1.156"
	},
	{
		"rt": 740,
		"stimulus": "<span style=\"font-size:30px; font-family: monospace\">o</span>",
		"response": " ",
		"trial": "exp-sent",
		"word": "o",
		"trial_type": "html-keyboard-response",
		"trial_index": 202,
		"time_elapsed": 434951,
		"internal_node_id": "0.0-3.0-1.157"
	},
	{
		"rt": 1738,
		"stimulus": "<span style=\"font-size:30px; font-family: monospace\">operador</span>",
		"response": " ",
		"trial": "exp-sent",
		"word": "operador",
		"trial_type": "html-keyboard-response",
		"trial_index": 203,
		"time_elapsed": 436943,
		"internal_node_id": "0.0-3.0-1.158"
	},
	{
		"rt": 573,
		"stimulus": "<span style=\"font-size:30px; font-family: monospace\">de</span>",
		"response": " ",
		"trial": "exp-sent",
		"word": "de",
		"trial_type": "html-keyboard-response",
		"trial_index": 204,
		"time_elapsed": 437780,
		"internal_node_id": "0.0-3.0-1.159"
	},
	{
		"rt": 1777,
		"stimulus": "<span style=\"font-size:30px; font-family: monospace\">caixa.</span>",
		"response": " ",
		"trial": "exp-sent",
		"word": "caixa.",
		"trial_type": "html-keyboard-response",
		"trial_index": 205,
		"time_elapsed": 439817,
		"internal_node_id": "0.0-3.0-1.160"
	},
	{
		"rt": null,
		"stimulus": "<span style= \"font-size:30px; font-family: monospace\">+</span>",
		"response": null,
		"trial_part": "fixation",
		"trial_type": "html-keyboard-response",
		"trial_index": 206,
		"time_elapsed": 441089,
		"internal_node_id": "0.0-3.0-0.161-0.161"
	},
	{
		"rt": 507,
		"stimulus": "<span style=\"font-size:30px; font-family: monospace\">A</span>",
		"response": " ",
		"trial": "exp-sent",
		"word": "A",
		"trial_type": "html-keyboard-response",
		"trial_index": 207,
		"time_elapsed": 441848,
		"internal_node_id": "0.0-3.0-1.161"
	},
	{
		"rt": 1363,
		"stimulus": "<span style=\"font-size:30px; font-family: monospace\">gente</span>",
		"response": " ",
		"trial": "exp-sent",
		"word": "gente",
		"trial_type": "html-keyboard-response",
		"trial_index": 208,
		"time_elapsed": 443479,
		"internal_node_id": "0.0-3.0-1.162"
	},
	{
		"rt": 945,
		"stimulus": "<span style=\"font-size:30px; font-family: monospace\">viu</span>",
		"response": " ",
		"trial": "exp-sent",
		"word": "viu",
		"trial_type": "html-keyboard-response",
		"trial_index": 209,
		"time_elapsed": 444684,
		"internal_node_id": "0.0-3.0-1.163"
	},
	{
		"rt": 747,
		"stimulus": "<span style=\"font-size:30px; font-family: monospace\">o</span>",
		"response": " ",
		"trial": "exp-sent",
		"word": "o",
		"trial_type": "html-keyboard-response",
		"trial_index": 210,
		"time_elapsed": 445685,
		"internal_node_id": "0.0-3.0-1.164"
	},
	{
		"rt": 1091,
		"stimulus": "<span style=\"font-size:30px; font-family: monospace\">eclipse</span>",
		"response": " ",
		"trial": "exp-sent",
		"word": "eclipse",
		"trial_type": "html-keyboard-response",
		"trial_index": 211,
		"time_elapsed": 447033,
		"internal_node_id": "0.0-3.0-1.165"
	},
	{
		"rt": 1094,
		"stimulus": "<span style=\"font-size:30px; font-family: monospace\">lunar</span>",
		"response": " ",
		"trial": "exp-sent",
		"word": "lunar",
		"trial_type": "html-keyboard-response",
		"trial_index": 212,
		"time_elapsed": 448390,
		"internal_node_id": "0.0-3.0-1.166"
	},
	{
		"rt": 1283,
		"stimulus": "<span style=\"font-size:30px; font-family: monospace\">durante</span>",
		"response": " ",
		"trial": "exp-sent",
		"word": "durante",
		"trial_type": "html-keyboard-response",
		"trial_index": 213,
		"time_elapsed": 449935,
		"internal_node_id": "0.0-3.0-1.167"
	},
	{
		"rt": 1303,
		"stimulus": "<span style=\"font-size:30px; font-family: monospace\">o</span>",
		"response": " ",
		"trial": "exp-sent",
		"word": "o",
		"trial_type": "html-keyboard-response",
		"trial_index": 214,
		"time_elapsed": 451511,
		"internal_node_id": "0.0-3.0-1.168"
	},
	{
		"rt": 1862,
		"stimulus": "<span style=\"font-size:30px; font-family: monospace\">dia.</span>",
		"response": " ",
		"trial": "exp-sent",
		"word": "dia.",
		"trial_type": "html-keyboard-response",
		"trial_index": 215,
		"time_elapsed": 453625,
		"internal_node_id": "0.0-3.0-1.169"
	},
	{
		"rt": null,
		"stimulus": "<span style= \"font-size:30px; font-family: monospace\">+</span>",
		"response": null,
		"trial_part": "fixation",
		"trial_type": "html-keyboard-response",
		"trial_index": 216,
		"time_elapsed": 454888,
		"internal_node_id": "0.0-3.0-0.170-0.170"
	},
	{
		"rt": 646,
		"stimulus": "<span style=\"font-size:30px; font-family: monospace\">A</span>",
		"response": " ",
		"trial": "exp-sent",
		"word": "A",
		"trial_type": "html-keyboard-response",
		"trial_index": 217,
		"time_elapsed": 455796,
		"internal_node_id": "0.0-3.0-1.170"
	},
	{
		"rt": 1875,
		"stimulus": "<span style=\"font-size:30px; font-family: monospace\">mordida</span>",
		"response": " ",
		"trial": "exp-sent",
		"word": "mordida",
		"trial_type": "html-keyboard-response",
		"trial_index": 218,
		"time_elapsed": 457932,
		"internal_node_id": "0.0-3.0-1.171"
	},
	{
		"rt": 547,
		"stimulus": "<span style=\"font-size:30px; font-family: monospace\">do</span>",
		"response": " ",
		"trial": "exp-sent",
		"word": "do",
		"trial_type": "html-keyboard-response",
		"trial_index": 219,
		"time_elapsed": 458748,
		"internal_node_id": "0.0-3.0-1.172"
	},
	{
		"rt": 1373,
		"stimulus": "<span style=\"font-size:30px; font-family: monospace\">cachorro</span>",
		"response": " ",
		"trial": "exp-sent",
		"word": "cachorro",
		"trial_type": "html-keyboard-response",
		"trial_index": 220,
		"time_elapsed": 460376,
		"internal_node_id": "0.0-3.0-1.173"
	},
	{
		"rt": 1904,
		"stimulus": "<span style=\"font-size:30px; font-family: monospace\">voraz</span>",
		"response": " ",
		"trial": "exp-sent",
		"word": "voraz",
		"trial_type": "html-keyboard-response",
		"trial_index": 221,
		"time_elapsed": 462535,
		"internal_node_id": "0.0-3.0-1.174"
	},
	{
		"rt": 1676,
		"stimulus": "<span style=\"font-size:30px; font-family: monospace\">causou</span>",
		"response": " ",
		"trial": "exp-sent",
		"word": "causou",
		"trial_type": "html-keyboard-response",
		"trial_index": 222,
		"time_elapsed": 464472,
		"internal_node_id": "0.0-3.0-1.175"
	},
	{
		"rt": 703,
		"stimulus": "<span style=\"font-size:30px; font-family: monospace\">uma</span>",
		"response": " ",
		"trial": "exp-sent",
		"word": "uma",
		"trial_type": "html-keyboard-response",
		"trial_index": 223,
		"time_elapsed": 465434,
		"internal_node_id": "0.0-3.0-1.176"
	},
	{
		"rt": 1357,
		"stimulus": "<span style=\"font-size:30px; font-family: monospace\">cicatriz.</span>",
		"response": " ",
		"trial": "exp-sent",
		"word": "cicatriz.",
		"trial_type": "html-keyboard-response",
		"trial_index": 224,
		"time_elapsed": 467062,
		"internal_node_id": "0.0-3.0-1.177"
	},
	{
		"rt": null,
		"stimulus": "<span style= \"font-size:30px; font-family: monospace\">+</span>",
		"response": null,
		"trial_part": "fixation",
		"trial_type": "html-keyboard-response",
		"trial_index": 225,
		"time_elapsed": 468338,
		"internal_node_id": "0.0-3.0-0.178-0.178"
	},
	{
		"rt": 919,
		"stimulus": "<span style=\"font-size:30px; font-family: monospace\">Elas</span>",
		"response": " ",
		"trial": "exp-sent",
		"word": "Elas",
		"trial_type": "html-keyboard-response",
		"trial_index": 226,
		"time_elapsed": 469516,
		"internal_node_id": "0.0-3.0-1.178"
	},
	{
		"rt": 1453,
		"stimulus": "<span style=\"font-size:30px; font-family: monospace\">não</span>",
		"response": " ",
		"trial": "exp-sent",
		"word": "não",
		"trial_type": "html-keyboard-response",
		"trial_index": 227,
		"time_elapsed": 471230,
		"internal_node_id": "0.0-3.0-1.179"
	},
	{
		"rt": 2105,
		"stimulus": "<span style=\"font-size:30px; font-family: monospace\">viram</span>",
		"response": " ",
		"trial": "exp-sent",
		"word": "viram",
		"trial_type": "html-keyboard-response",
		"trial_index": 228,
		"time_elapsed": 473592,
		"internal_node_id": "0.0-3.0-1.180"
	},
	{
		"rt": 1152,
		"stimulus": "<span style=\"font-size:30px; font-family: monospace\">nenhuma</span>",
		"response": " ",
		"trial": "exp-sent",
		"word": "nenhuma",
		"trial_type": "html-keyboard-response",
		"trial_index": 229,
		"time_elapsed": 475005,
		"internal_node_id": "0.0-3.0-1.181"
	},
	{
		"rt": 904,
		"stimulus": "<span style=\"font-size:30px; font-family: monospace\">diferença</span>",
		"response": " ",
		"trial": "exp-sent",
		"word": "diferença",
		"trial_type": "html-keyboard-response",
		"trial_index": 230,
		"time_elapsed": 476163,
		"internal_node_id": "0.0-3.0-1.182"
	},
	{
		"rt": 851,
		"stimulus": "<span style=\"font-size:30px; font-family: monospace\">entre</span>",
		"response": " ",
		"trial": "exp-sent",
		"word": "entre",
		"trial_type": "html-keyboard-response",
		"trial_index": 231,
		"time_elapsed": 477272,
		"internal_node_id": "0.0-3.0-1.183"
	},
	{
		"rt": 811,
		"stimulus": "<span style=\"font-size:30px; font-family: monospace\">os</span>",
		"response": " ",
		"trial": "exp-sent",
		"word": "os",
		"trial_type": "html-keyboard-response",
		"trial_index": 232,
		"time_elapsed": 478334,
		"internal_node_id": "0.0-3.0-1.184"
	},
	{
		"rt": 2474,
		"stimulus": "<span style=\"font-size:30px; font-family: monospace\">textos.</span>",
		"response": " ",
		"trial": "exp-sent",
		"word": "textos.",
		"trial_type": "html-keyboard-response",
		"trial_index": 233,
		"time_elapsed": 481062,
		"internal_node_id": "0.0-3.0-1.185"
	},
	{
		"rt": null,
		"stimulus": "<span style= \"font-size:30px; font-family: monospace\">+</span>",
		"response": null,
		"trial_part": "fixation",
		"trial_type": "html-keyboard-response",
		"trial_index": 234,
		"time_elapsed": 482349,
		"internal_node_id": "0.0-3.0-0.186-0.186"
	},
	{
		"rt": 1151,
		"stimulus": "<span style=\"font-size:30px; font-family: monospace\">Amanhã</span>",
		"response": " ",
		"trial": "exp-sent",
		"word": "Amanhã",
		"trial_type": "html-keyboard-response",
		"trial_index": 235,
		"time_elapsed": 483756,
		"internal_node_id": "0.0-3.0-1.186"
	},
	{
		"rt": 805,
		"stimulus": "<span style=\"font-size:30px; font-family: monospace\">vai</span>",
		"response": " ",
		"trial": "exp-sent",
		"word": "vai",
		"trial_type": "html-keyboard-response",
		"trial_index": 236,
		"time_elapsed": 484824,
		"internal_node_id": "0.0-3.0-1.187"
	},
	{
		"rt": 790,
		"stimulus": "<span style=\"font-size:30px; font-family: monospace\">ter</span>",
		"response": " ",
		"trial": "exp-sent",
		"word": "ter",
		"trial_type": "html-keyboard-response",
		"trial_index": 237,
		"time_elapsed": 485867,
		"internal_node_id": "0.0-3.0-1.188"
	},
	{
		"rt": 765,
		"stimulus": "<span style=\"font-size:30px; font-family: monospace\">um</span>",
		"response": " ",
		"trial": "exp-sent",
		"word": "um",
		"trial_type": "html-keyboard-response",
		"trial_index": 238,
		"time_elapsed": 486891,
		"internal_node_id": "0.0-3.0-1.189"
	},
	{
		"rt": 1138,
		"stimulus": "<span style=\"font-size:30px; font-family: monospace\">bazar</span>",
		"response": " ",
		"trial": "exp-sent",
		"word": "bazar",
		"trial_type": "html-keyboard-response",
		"trial_index": 239,
		"time_elapsed": 488306,
		"internal_node_id": "0.0-3.0-1.190"
	},
	{
		"rt": 828,
		"stimulus": "<span style=\"font-size:30px; font-family: monospace\">no</span>",
		"response": " ",
		"trial": "exp-sent",
		"word": "no",
		"trial_type": "html-keyboard-response",
		"trial_index": 240,
		"time_elapsed": 489398,
		"internal_node_id": "0.0-3.0-1.191"
	},
	{
		"rt": 1121,
		"stimulus": "<span style=\"font-size:30px; font-family: monospace\">bairro.</span>",
		"response": " ",
		"trial": "comp",
		"word": "bairro.",
		"trial_type": "html-keyboard-response",
		"trial_index": 241,
		"time_elapsed": 490779,
		"internal_node_id": "0.0-3.0-1.192"
	},
	{
		"rt": 18039,
		"stimulus": "<span style=\"font-size:30px; font-family: monospace\">Amanhã vai acontecer um bazar no bairro?</span>",
		"response": "n",
		"question": "Amanhã vai acontecer um bazar no bairro?",
		"answer": "sim",
		"trial": "comp",
		"trial_type": "html-keyboard-response",
		"trial_index": 242,
		"time_elapsed": 509075,
		"internal_node_id": "0.0-3.0-2.192-0.192",
		"accuracy": false
	},
	{
		"rt": null,
		"stimulus": "<span style= \"font-size:30px; font-family: monospace\">+</span>",
		"response": null,
		"trial_part": "fixation",
		"trial_type": "html-keyboard-response",
		"trial_index": 243,
		"time_elapsed": 510592,
		"internal_node_id": "0.0-3.0-0.193-0.193"
	},
	{
		"rt": 1884,
		"stimulus": "<span style=\"font-size:30px; font-family: monospace\">O</span>",
		"response": " ",
		"trial": "exp-sent",
		"word": "O",
		"trial_type": "html-keyboard-response",
		"trial_index": 244,
		"time_elapsed": 512727,
		"internal_node_id": "0.0-3.0-1.193"
	},
	{
		"rt": 628,
		"stimulus": "<span style=\"font-size:30px; font-family: monospace\">moço</span>",
		"response": " ",
		"trial": "exp-sent",
		"word": "moço",
		"trial_type": "html-keyboard-response",
		"trial_index": 245,
		"time_elapsed": 513610,
		"internal_node_id": "0.0-3.0-1.194"
	},
	{
		"rt": 733,
		"stimulus": "<span style=\"font-size:30px; font-family: monospace\">usou</span>",
		"response": " ",
		"trial": "exp-sent",
		"word": "usou",
		"trial_type": "html-keyboard-response",
		"trial_index": 246,
		"time_elapsed": 514604,
		"internal_node_id": "0.0-3.0-1.195"
	},
	{
		"rt": 802,
		"stimulus": "<span style=\"font-size:30px; font-family: monospace\">várias</span>",
		"response": " ",
		"trial": "exp-sent",
		"word": "várias",
		"trial_type": "html-keyboard-response",
		"trial_index": 247,
		"time_elapsed": 515657,
		"internal_node_id": "0.0-3.0-1.196"
	},
	{
		"rt": 782,
		"stimulus": "<span style=\"font-size:30px; font-family: monospace\">velas</span>",
		"response": " ",
		"trial": "exp-sent",
		"word": "velas",
		"trial_type": "html-keyboard-response",
		"trial_index": 248,
		"time_elapsed": 516710,
		"internal_node_id": "0.0-3.0-1.197"
	},
	{
		"rt": 560,
		"stimulus": "<span style=\"font-size:30px; font-family: monospace\">no</span>",
		"response": " ",
		"trial": "exp-sent",
		"word": "no",
		"trial_type": "html-keyboard-response",
		"trial_index": 249,
		"time_elapsed": 517523,
		"internal_node_id": "0.0-3.0-1.198"
	},
	{
		"rt": 1568,
		"stimulus": "<span style=\"font-size:30px; font-family: monospace\">enfeite</span>",
		"response": " ",
		"trial": "exp-sent",
		"word": "enfeite",
		"trial_type": "html-keyboard-response",
		"trial_index": 250,
		"time_elapsed": 519344,
		"internal_node_id": "0.0-3.0-1.199"
	},
	{
		"rt": 516,
		"stimulus": "<span style=\"font-size:30px; font-family: monospace\">de</span>",
		"response": " ",
		"trial": "exp-sent",
		"word": "de",
		"trial_type": "html-keyboard-response",
		"trial_index": 251,
		"time_elapsed": 520124,
		"internal_node_id": "0.0-3.0-1.200"
	},
	{
		"rt": 1228,
		"stimulus": "<span style=\"font-size:30px; font-family: monospace\">mesa.</span>",
		"response": " ",
		"trial": "exp-sent",
		"word": "mesa.",
		"trial_type": "html-keyboard-response",
		"trial_index": 252,
		"time_elapsed": 521607,
		"internal_node_id": "0.0-3.0-1.201"
	},
	{
		"rt": null,
		"stimulus": "<span style= \"font-size:30px; font-family: monospace\">+</span>",
		"response": null,
		"trial_part": "fixation",
		"trial_type": "html-keyboard-response",
		"trial_index": 253,
		"time_elapsed": 522882,
		"internal_node_id": "0.0-3.0-0.202-0.202"
	},
	{
		"rt": 1148,
		"stimulus": "<span style=\"font-size:30px; font-family: monospace\">Gostamos</span>",
		"response": " ",
		"trial": "exp-sent",
		"word": "Gostamos",
		"trial_type": "html-keyboard-response",
		"trial_index": 254,
		"time_elapsed": 524281,
		"internal_node_id": "0.0-3.0-1.202"
	},
	{
		"rt": 553,
		"stimulus": "<span style=\"font-size:30px; font-family: monospace\">de</span>",
		"response": " ",
		"trial": "exp-sent",
		"word": "de",
		"trial_type": "html-keyboard-response",
		"trial_index": 255,
		"time_elapsed": 525086,
		"internal_node_id": "0.0-3.0-1.203"
	},
	{
		"rt": 954,
		"stimulus": "<span style=\"font-size:30px; font-family: monospace\">suco</span>",
		"response": " ",
		"trial": "exp-sent",
		"word": "suco",
		"trial_type": "html-keyboard-response",
		"trial_index": 256,
		"time_elapsed": 526298,
		"internal_node_id": "0.0-3.0-1.204"
	},
	{
		"rt": 603,
		"stimulus": "<span style=\"font-size:30px; font-family: monospace\">em</span>",
		"response": " ",
		"trial": "exp-sent",
		"word": "em",
		"trial_type": "html-keyboard-response",
		"trial_index": 257,
		"time_elapsed": 527160,
		"internal_node_id": "0.0-3.0-1.205"
	},
	{
		"rt": 1899,
		"stimulus": "<span style=\"font-size:30px; font-family: monospace\">garrafa</span>",
		"response": " ",
		"trial": "exp-sent",
		"word": "garrafa",
		"trial_type": "html-keyboard-response",
		"trial_index": 258,
		"time_elapsed": 529311,
		"internal_node_id": "0.0-3.0-1.206"
	},
	{
		"rt": 500,
		"stimulus": "<span style=\"font-size:30px; font-family: monospace\">de</span>",
		"response": " ",
		"trial": "exp-sent",
		"word": "de",
		"trial_type": "html-keyboard-response",
		"trial_index": 259,
		"time_elapsed": 530067,
		"internal_node_id": "0.0-3.0-1.207"
	},
	{
		"rt": 1697,
		"stimulus": "<span style=\"font-size:30px; font-family: monospace\">tamanho</span>",
		"response": " ",
		"trial": "exp-sent",
		"word": "tamanho",
		"trial_type": "html-keyboard-response",
		"trial_index": 260,
		"time_elapsed": 532017,
		"internal_node_id": "0.0-3.0-1.208"
	},
	{
		"rt": 1847,
		"stimulus": "<span style=\"font-size:30px; font-family: monospace\">pequeno.</span>",
		"response": " ",
		"trial": "exp-sent",
		"word": "pequeno.",
		"trial_type": "html-keyboard-response",
		"trial_index": 261,
		"time_elapsed": 534117,
		"internal_node_id": "0.0-3.0-1.209"
	},
	{
		"rt": null,
		"stimulus": "<span style= \"font-size:30px; font-family: monospace\">+</span>",
		"response": null,
		"trial_part": "fixation",
		"trial_type": "html-keyboard-response",
		"trial_index": 262,
		"time_elapsed": 535383,
		"internal_node_id": "0.0-3.0-0.210-0.210"
	},
	{
		"rt": 855,
		"stimulus": "<span style=\"font-size:30px; font-family: monospace\">Sua</span>",
		"response": " ",
		"trial": "exp-sent",
		"word": "Sua",
		"trial_type": "html-keyboard-response",
		"trial_index": 263,
		"time_elapsed": 536502,
		"internal_node_id": "0.0-3.0-1.210"
	},
	{
		"rt": 750,
		"stimulus": "<span style=\"font-size:30px; font-family: monospace\">filha</span>",
		"response": " ",
		"trial": "exp-sent",
		"word": "filha",
		"trial_type": "html-keyboard-response",
		"trial_index": 264,
		"time_elapsed": 537515,
		"internal_node_id": "0.0-3.0-1.211"
	},
	{
		"rt": 770,
		"stimulus": "<span style=\"font-size:30px; font-family: monospace\">é</span>",
		"response": " ",
		"trial": "exp-sent",
		"word": "é",
		"trial_type": "html-keyboard-response",
		"trial_index": 265,
		"time_elapsed": 538541,
		"internal_node_id": "0.0-3.0-1.212"
	},
	{
		"rt": 982,
		"stimulus": "<span style=\"font-size:30px; font-family: monospace\">muito</span>",
		"response": " ",
		"trial": "exp-sent",
		"word": "muito",
		"trial_type": "html-keyboard-response",
		"trial_index": 266,
		"time_elapsed": 539776,
		"internal_node_id": "0.0-3.0-1.213"
	},
	{
		"rt": 743,
		"stimulus": "<span style=\"font-size:30px; font-family: monospace\">capaz</span>",
		"response": " ",
		"trial": "exp-sent",
		"word": "capaz",
		"trial_type": "html-keyboard-response",
		"trial_index": 267,
		"time_elapsed": 540777,
		"internal_node_id": "0.0-3.0-1.214"
	},
	{
		"rt": 650,
		"stimulus": "<span style=\"font-size:30px; font-family: monospace\">e</span>",
		"response": " ",
		"trial": "exp-sent",
		"word": "e",
		"trial_type": "html-keyboard-response",
		"trial_index": 268,
		"time_elapsed": 541691,
		"internal_node_id": "0.0-3.0-1.215"
	},
	{
		"rt": 938,
		"stimulus": "<span style=\"font-size:30px; font-family: monospace\">esforçada.</span>",
		"response": " ",
		"trial": "exp-sent",
		"word": "esforçada.",
		"trial_type": "html-keyboard-response",
		"trial_index": 269,
		"time_elapsed": 542883,
		"internal_node_id": "0.0-3.0-1.216"
	},
	{
		"rt": null,
		"stimulus": "<span style= \"font-size:30px; font-family: monospace\">+</span>",
		"response": null,
		"trial_part": "fixation",
		"trial_type": "html-keyboard-response",
		"trial_index": 270,
		"time_elapsed": 544154,
		"internal_node_id": "0.0-3.0-0.217-0.217"
	},
	{
		"rt": 68,
		"stimulus": "<span style=\"font-size:30px; font-family: monospace\">A</span>",
		"response": " ",
		"trial": "exp-sent",
		"word": "A",
		"trial_type": "html-keyboard-response",
		"trial_index": 271,
		"time_elapsed": 544477,
		"internal_node_id": "0.0-3.0-1.217"
	},
	{
		"rt": 1019,
		"stimulus": "<span style=\"font-size:30px; font-family: monospace\">batida</span>",
		"response": " ",
		"trial": "exp-sent",
		"word": "batida",
		"trial_type": "html-keyboard-response",
		"trial_index": 272,
		"time_elapsed": 545763,
		"internal_node_id": "0.0-3.0-1.218"
	},
	{
		"rt": 754,
		"stimulus": "<span style=\"font-size:30px; font-family: monospace\">causou</span>",
		"response": " ",
		"trial": "exp-sent",
		"word": "causou",
		"trial_type": "html-keyboard-response",
		"trial_index": 273,
		"time_elapsed": 546781,
		"internal_node_id": "0.0-3.0-1.219"
	},
	{
		"rt": 710,
		"stimulus": "<span style=\"font-size:30px; font-family: monospace\">muita</span>",
		"response": " ",
		"trial": "exp-sent",
		"word": "muita",
		"trial_type": "html-keyboard-response",
		"trial_index": 274,
		"time_elapsed": 547763,
		"internal_node_id": "0.0-3.0-1.220"
	},
	{
		"rt": 1053,
		"stimulus": "<span style=\"font-size:30px; font-family: monospace\">confusão</span>",
		"response": " ",
		"trial": "exp-sent",
		"word": "confusão",
		"trial_type": "html-keyboard-response",
		"trial_index": 275,
		"time_elapsed": 549068,
		"internal_node_id": "0.0-3.0-1.221"
	},
	{
		"rt": 547,
		"stimulus": "<span style=\"font-size:30px; font-family: monospace\">na</span>",
		"response": " ",
		"trial": "exp-sent",
		"word": "na",
		"trial_type": "html-keyboard-response",
		"trial_index": 276,
		"time_elapsed": 549876,
		"internal_node_id": "0.0-3.0-1.222"
	},
	{
		"rt": 827,
		"stimulus": "<span style=\"font-size:30px; font-family: monospace\">estrada.</span>",
		"response": " ",
		"trial": "exp-sent",
		"word": "estrada.",
		"trial_type": "html-keyboard-response",
		"trial_index": 277,
		"time_elapsed": 550954,
		"internal_node_id": "0.0-3.0-1.223"
	},
	{
		"rt": null,
		"stimulus": "<span style= \"font-size:30px; font-family: monospace\">+</span>",
		"response": null,
		"trial_part": "fixation",
		"trial_type": "html-keyboard-response",
		"trial_index": 278,
		"time_elapsed": 552215,
		"internal_node_id": "0.0-3.0-0.224-0.224"
	},
	{
		"rt": 796,
		"stimulus": "<span style=\"font-size:30px; font-family: monospace\">Eu</span>",
		"response": " ",
		"trial": "exp-sent",
		"word": "Eu",
		"trial_type": "html-keyboard-response",
		"trial_index": 279,
		"time_elapsed": 553270,
		"internal_node_id": "0.0-3.0-1.224"
	},
	{
		"rt": 1206,
		"stimulus": "<span style=\"font-size:30px; font-family: monospace\">cozinhei</span>",
		"response": " ",
		"trial": "exp-sent",
		"word": "cozinhei",
		"trial_type": "html-keyboard-response",
		"trial_index": 280,
		"time_elapsed": 554731,
		"internal_node_id": "0.0-3.0-1.225"
	},
	{
		"rt": 584,
		"stimulus": "<span style=\"font-size:30px; font-family: monospace\">um</span>",
		"response": " ",
		"trial": "exp-sent",
		"word": "um",
		"trial_type": "html-keyboard-response",
		"trial_index": 281,
		"time_elapsed": 555578,
		"internal_node_id": "0.0-3.0-1.226"
	},
	{
		"rt": 833,
		"stimulus": "<span style=\"font-size:30px; font-family: monospace\">almoço</span>",
		"response": " ",
		"trial": "exp-sent",
		"word": "almoço",
		"trial_type": "html-keyboard-response",
		"trial_index": 282,
		"time_elapsed": 556667,
		"internal_node_id": "0.0-3.0-1.227"
	},
	{
		"rt": 1015,
		"stimulus": "<span style=\"font-size:30px; font-family: monospace\">nutritivo</span>",
		"response": " ",
		"trial": "exp-sent",
		"word": "nutritivo",
		"trial_type": "html-keyboard-response",
		"trial_index": 283,
		"time_elapsed": 557943,
		"internal_node_id": "0.0-3.0-1.228"
	},
	{
		"rt": 578,
		"stimulus": "<span style=\"font-size:30px; font-family: monospace\">para</span>",
		"response": " ",
		"trial": "exp-sent",
		"word": "para",
		"trial_type": "html-keyboard-response",
		"trial_index": 284,
		"time_elapsed": 558778,
		"internal_node_id": "0.0-3.0-1.229"
	},
	{
		"rt": 2494,
		"stimulus": "<span style=\"font-size:30px; font-family: monospace\">hoje.</span>",
		"response": " ",
		"trial": "comp",
		"word": "hoje.",
		"trial_type": "html-keyboard-response",
		"trial_index": 285,
		"time_elapsed": 561536,
		"internal_node_id": "0.0-3.0-1.230"
	},
	{
		"rt": 15512,
		"stimulus": "<span style=\"font-size:30px; font-family: monospace\">O almoço era nutritivo?</span>",
		"response": "s",
		"question": "O almoço era nutritivo?",
		"answer": "sim",
		"trial": "comp",
		"trial_type": "html-keyboard-response",
		"trial_index": 286,
		"time_elapsed": 577308,
		"internal_node_id": "0.0-3.0-2.230-0.230",
		"accuracy": false
	},
	{
		"rt": null,
		"stimulus": "<span style= \"font-size:30px; font-family: monospace\">+</span>",
		"response": null,
		"trial_part": "fixation",
		"trial_type": "html-keyboard-response",
		"trial_index": 287,
		"time_elapsed": 578822,
		"internal_node_id": "0.0-3.0-0.231-0.231"
	},
	{
		"rt": 1124,
		"stimulus": "<span style=\"font-size:30px; font-family: monospace\">Ursos</span>",
		"response": " ",
		"trial": "exp-sent",
		"word": "Ursos",
		"trial_type": "html-keyboard-response",
		"trial_index": 288,
		"time_elapsed": 580203,
		"internal_node_id": "0.0-3.0-1.231"
	},
	{
		"rt": 542,
		"stimulus": "<span style=\"font-size:30px; font-family: monospace\">têm</span>",
		"response": " ",
		"trial": "exp-sent",
		"word": "têm",
		"trial_type": "html-keyboard-response",
		"trial_index": 289,
		"time_elapsed": 581007,
		"internal_node_id": "0.0-3.0-1.232"
	},
	{
		"rt": 529,
		"stimulus": "<span style=\"font-size:30px; font-family: monospace\">uma</span>",
		"response": " ",
		"trial": "exp-sent",
		"word": "uma",
		"trial_type": "html-keyboard-response",
		"trial_index": 290,
		"time_elapsed": 581802,
		"internal_node_id": "0.0-3.0-1.233"
	},
	{
		"rt": 1895,
		"stimulus": "<span style=\"font-size:30px; font-family: monospace\">patada</span>",
		"response": " ",
		"trial": "exp-sent",
		"word": "patada",
		"trial_type": "html-keyboard-response",
		"trial_index": 291,
		"time_elapsed": 583961,
		"internal_node_id": "0.0-3.0-1.234"
	},
	{
		"rt": 1022,
		"stimulus": "<span style=\"font-size:30px; font-family: monospace\">brutal</span>",
		"response": " ",
		"trial": "exp-sent",
		"word": "brutal",
		"trial_type": "html-keyboard-response",
		"trial_index": 292,
		"time_elapsed": 585234,
		"internal_node_id": "0.0-3.0-1.235"
	},
	{
		"rt": 887,
		"stimulus": "<span style=\"font-size:30px; font-family: monospace\">e</span>",
		"response": " ",
		"trial": "exp-sent",
		"word": "e",
		"trial_type": "html-keyboard-response",
		"trial_index": 293,
		"time_elapsed": 586379,
		"internal_node_id": "0.0-3.0-1.236"
	},
	{
		"rt": 1917,
		"stimulus": "<span style=\"font-size:30px; font-family: monospace\">poderosa.</span>",
		"response": " ",
		"trial": "exp-sent",
		"word": "poderosa.",
		"trial_type": "html-keyboard-response",
		"trial_index": 294,
		"time_elapsed": 588556,
		"internal_node_id": "0.0-3.0-1.237"
	},
	{
		"rt": null,
		"stimulus": "<span style= \"font-size:30px; font-family: monospace\">+</span>",
		"response": null,
		"trial_part": "fixation",
		"trial_type": "html-keyboard-response",
		"trial_index": 295,
		"time_elapsed": 589812,
		"internal_node_id": "0.0-3.0-0.238-0.238"
	},
	{
		"rt": 673,
		"stimulus": "<span style=\"font-size:30px; font-family: monospace\">Eu</span>",
		"response": " ",
		"trial": "exp-sent",
		"word": "Eu",
		"trial_type": "html-keyboard-response",
		"trial_index": 296,
		"time_elapsed": 590742,
		"internal_node_id": "0.0-3.0-1.238"
	},
	{
		"rt": 735,
		"stimulus": "<span style=\"font-size:30px; font-family: monospace\">fiz</span>",
		"response": " ",
		"trial": "exp-sent",
		"word": "fiz",
		"trial_type": "html-keyboard-response",
		"trial_index": 297,
		"time_elapsed": 591740,
		"internal_node_id": "0.0-3.0-1.239"
	},
	{
		"rt": 881,
		"stimulus": "<span style=\"font-size:30px; font-family: monospace\">aulas</span>",
		"response": " ",
		"trial": "exp-sent",
		"word": "aulas",
		"trial_type": "html-keyboard-response",
		"trial_index": 298,
		"time_elapsed": 592877,
		"internal_node_id": "0.0-3.0-1.240"
	},
	{
		"rt": 477,
		"stimulus": "<span style=\"font-size:30px; font-family: monospace\">de</span>",
		"response": " ",
		"trial": "exp-sent",
		"word": "de",
		"trial_type": "html-keyboard-response",
		"trial_index": 299,
		"time_elapsed": 593617,
		"internal_node_id": "0.0-3.0-1.241"
	},
	{
		"rt": 1118,
		"stimulus": "<span style=\"font-size:30px; font-family: monospace\">espanhol</span>",
		"response": " ",
		"trial": "exp-sent",
		"word": "espanhol",
		"trial_type": "html-keyboard-response",
		"trial_index": 300,
		"time_elapsed": 594990,
		"internal_node_id": "0.0-3.0-1.242"
	},
	{
		"rt": 1052,
		"stimulus": "<span style=\"font-size:30px; font-family: monospace\">nesta</span>",
		"response": " ",
		"trial": "exp-sent",
		"word": "nesta",
		"trial_type": "html-keyboard-response",
		"trial_index": 301,
		"time_elapsed": 596297,
		"internal_node_id": "0.0-3.0-1.243"
	},
	{
		"rt": 1079,
		"stimulus": "<span style=\"font-size:30px; font-family: monospace\">cidade.</span>",
		"response": " ",
		"trial": "exp-sent",
		"word": "cidade.",
		"trial_type": "html-keyboard-response",
		"trial_index": 302,
		"time_elapsed": 597636,
		"internal_node_id": "0.0-3.0-1.244"
	},
	{
		"rt": null,
		"stimulus": "<span style= \"font-size:30px; font-family: monospace\">+</span>",
		"response": null,
		"trial_part": "fixation",
		"trial_type": "html-keyboard-response",
		"trial_index": 303,
		"time_elapsed": 598895,
		"internal_node_id": "0.0-3.0-0.245-0.245"
	},
	{
		"rt": 571,
		"stimulus": "<span style=\"font-size:30px; font-family: monospace\">Ele</span>",
		"response": " ",
		"trial": "exp-sent",
		"word": "Ele",
		"trial_type": "html-keyboard-response",
		"trial_index": 304,
		"time_elapsed": 599723,
		"internal_node_id": "0.0-3.0-1.245"
	},
	{
		"rt": 679,
		"stimulus": "<span style=\"font-size:30px; font-family: monospace\">comprou</span>",
		"response": " ",
		"trial": "exp-sent",
		"word": "comprou",
		"trial_type": "html-keyboard-response",
		"trial_index": 305,
		"time_elapsed": 600663,
		"internal_node_id": "0.0-3.0-1.246"
	},
	{
		"rt": 897,
		"stimulus": "<span style=\"font-size:30px; font-family: monospace\">mais</span>",
		"response": " ",
		"trial": "exp-sent",
		"word": "mais",
		"trial_type": "html-keyboard-response",
		"trial_index": 306,
		"time_elapsed": 601811,
		"internal_node_id": "0.0-3.0-1.247"
	},
	{
		"rt": 827,
		"stimulus": "<span style=\"font-size:30px; font-family: monospace\">uma</span>",
		"response": " ",
		"trial": "exp-sent",
		"word": "uma",
		"trial_type": "html-keyboard-response",
		"trial_index": 307,
		"time_elapsed": 602905,
		"internal_node_id": "0.0-3.0-1.248"
	},
	{
		"rt": 972,
		"stimulus": "<span style=\"font-size:30px; font-family: monospace\">esponja</span>",
		"response": " ",
		"trial": "exp-sent",
		"word": "esponja",
		"trial_type": "html-keyboard-response",
		"trial_index": 308,
		"time_elapsed": 604130,
		"internal_node_id": "0.0-3.0-1.249"
	},
	{
		"rt": 617,
		"stimulus": "<span style=\"font-size:30px; font-family: monospace\">para</span>",
		"response": " ",
		"trial": "exp-sent",
		"word": "para",
		"trial_type": "html-keyboard-response",
		"trial_index": 309,
		"time_elapsed": 605001,
		"internal_node_id": "0.0-3.0-1.250"
	},
	{
		"rt": 525,
		"stimulus": "<span style=\"font-size:30px; font-family: monospace\">a</span>",
		"response": " ",
		"trial": "exp-sent",
		"word": "a",
		"trial_type": "html-keyboard-response",
		"trial_index": 310,
		"time_elapsed": 605779,
		"internal_node_id": "0.0-3.0-1.251"
	},
	{
		"rt": 1073,
		"stimulus": "<span style=\"font-size:30px; font-family: monospace\">cozinha.</span>",
		"response": " ",
		"trial": "exp-sent",
		"word": "cozinha.",
		"trial_type": "html-keyboard-response",
		"trial_index": 311,
		"time_elapsed": 607112,
		"internal_node_id": "0.0-3.0-1.252"
	},
	{
		"rt": null,
		"stimulus": "<span style= \"font-size:30px; font-family: monospace\">+</span>",
		"response": null,
		"trial_part": "fixation",
		"trial_type": "html-keyboard-response",
		"trial_index": 312,
		"time_elapsed": 608376,
		"internal_node_id": "0.0-3.0-0.253-0.253"
	},
	{
		"rt": 652,
		"stimulus": "<span style=\"font-size:30px; font-family: monospace\">Ele</span>",
		"response": " ",
		"trial": "exp-sent",
		"word": "Ele",
		"trial_type": "html-keyboard-response",
		"trial_index": 313,
		"time_elapsed": 609281,
		"internal_node_id": "0.0-3.0-1.253"
	},
	{
		"rt": 1788,
		"stimulus": "<span style=\"font-size:30px; font-family: monospace\">teve</span>",
		"response": " ",
		"trial": "exp-sent",
		"word": "teve",
		"trial_type": "html-keyboard-response",
		"trial_index": 314,
		"time_elapsed": 611334,
		"internal_node_id": "0.0-3.0-1.254"
	},
	{
		"rt": 1024,
		"stimulus": "<span style=\"font-size:30px; font-family: monospace\">um</span>",
		"response": " ",
		"trial": "exp-sent",
		"word": "um",
		"trial_type": "html-keyboard-response",
		"trial_index": 315,
		"time_elapsed": 612616,
		"internal_node_id": "0.0-3.0-1.255"
	},
	{
		"rt": 590,
		"stimulus": "<span style=\"font-size:30px; font-family: monospace\">sono</span>",
		"response": " ",
		"trial": "exp-sent",
		"word": "sono",
		"trial_type": "html-keyboard-response",
		"trial_index": 316,
		"time_elapsed": 613464,
		"internal_node_id": "0.0-3.0-1.256"
	},
	{
		"rt": 982,
		"stimulus": "<span style=\"font-size:30px; font-family: monospace\">bizarro</span>",
		"response": " ",
		"trial": "exp-sent",
		"word": "bizarro",
		"trial_type": "html-keyboard-response",
		"trial_index": 317,
		"time_elapsed": 614701,
		"internal_node_id": "0.0-3.0-1.257"
	},
	{
		"rt": 631,
		"stimulus": "<span style=\"font-size:30px; font-family: monospace\">sem</span>",
		"response": " ",
		"trial": "exp-sent",
		"word": "sem",
		"trial_type": "html-keyboard-response",
		"trial_index": 318,
		"time_elapsed": 615588,
		"internal_node_id": "0.0-3.0-1.258"
	},
	{
		"rt": 912,
		"stimulus": "<span style=\"font-size:30px; font-family: monospace\">nenhum</span>",
		"response": " ",
		"trial": "exp-sent",
		"word": "nenhum",
		"trial_type": "html-keyboard-response",
		"trial_index": 319,
		"time_elapsed": 616757,
		"internal_node_id": "0.0-3.0-1.259"
	},
	{
		"rt": 1003,
		"stimulus": "<span style=\"font-size:30px; font-family: monospace\">motivo.</span>",
		"response": " ",
		"trial": "exp-sent",
		"word": "motivo.",
		"trial_type": "html-keyboard-response",
		"trial_index": 320,
		"time_elapsed": 618020,
		"internal_node_id": "0.0-3.0-1.260"
	},
	{
		"rt": null,
		"stimulus": "<span style= \"font-size:30px; font-family: monospace\">+</span>",
		"response": null,
		"trial_part": "fixation",
		"trial_type": "html-keyboard-response",
		"trial_index": 321,
		"time_elapsed": 619289,
		"internal_node_id": "0.0-3.0-0.261-0.261"
	},
	{
		"rt": 680,
		"stimulus": "<span style=\"font-size:30px; font-family: monospace\">A</span>",
		"response": " ",
		"trial": "exp-sent",
		"word": "A",
		"trial_type": "html-keyboard-response",
		"trial_index": 322,
		"time_elapsed": 620227,
		"internal_node_id": "0.0-3.0-1.261"
	},
	{
		"rt": 534,
		"stimulus": "<span style=\"font-size:30px; font-family: monospace\">moça</span>",
		"response": " ",
		"trial": "exp-sent",
		"word": "moça",
		"trial_type": "html-keyboard-response",
		"trial_index": 323,
		"time_elapsed": 621025,
		"internal_node_id": "0.0-3.0-1.262"
	},
	{
		"rt": 660,
		"stimulus": "<span style=\"font-size:30px; font-family: monospace\">comprou</span>",
		"response": " ",
		"trial": "exp-sent",
		"word": "comprou",
		"trial_type": "html-keyboard-response",
		"trial_index": 324,
		"time_elapsed": 621961,
		"internal_node_id": "0.0-3.0-1.263"
	},
	{
		"rt": 499,
		"stimulus": "<span style=\"font-size:30px; font-family: monospace\">um</span>",
		"response": " ",
		"trial": "exp-sent",
		"word": "um",
		"trial_type": "html-keyboard-response",
		"trial_index": 325,
		"time_elapsed": 622717,
		"internal_node_id": "0.0-3.0-1.264"
	},
	{
		"rt": 929,
		"stimulus": "<span style=\"font-size:30px; font-family: monospace\">diamante</span>",
		"response": " ",
		"trial": "exp-sent",
		"word": "diamante",
		"trial_type": "html-keyboard-response",
		"trial_index": 326,
		"time_elapsed": 623913,
		"internal_node_id": "0.0-3.0-1.265"
	},
	{
		"rt": 506,
		"stimulus": "<span style=\"font-size:30px; font-family: monospace\">para</span>",
		"response": " ",
		"trial": "exp-sent",
		"word": "para",
		"trial_type": "html-keyboard-response",
		"trial_index": 327,
		"time_elapsed": 624676,
		"internal_node_id": "0.0-3.0-1.266"
	},
	{
		"rt": 536,
		"stimulus": "<span style=\"font-size:30px; font-family: monospace\">sua</span>",
		"response": " ",
		"trial": "exp-sent",
		"word": "sua",
		"trial_type": "html-keyboard-response",
		"trial_index": 328,
		"time_elapsed": 625477,
		"internal_node_id": "0.0-3.0-1.267"
	},
	{
		"rt": 1100,
		"stimulus": "<span style=\"font-size:30px; font-family: monospace\">prima.</span>",
		"response": " ",
		"trial": "comp",
		"word": "prima.",
		"trial_type": "html-keyboard-response",
		"trial_index": 329,
		"time_elapsed": 626834,
		"internal_node_id": "0.0-3.0-1.268"
	},
	{
		"rt": 23926,
		"stimulus": "<span style=\"font-size:30px; font-family: monospace\">A moça comprou um diamante?</span>",
		"response": "s",
		"question": "A moça comprou um diamante?",
		"answer": "sim",
		"trial": "comp",
		"trial_type": "html-keyboard-response",
		"trial_index": 330,
		"time_elapsed": 651012,
		"internal_node_id": "0.0-3.0-2.268-0.268",
		"accuracy": false
	},
	{
		"rt": null,
		"stimulus": "<span style= \"font-size:30px; font-family: monospace\">+</span>",
		"response": null,
		"trial_part": "fixation",
		"trial_type": "html-keyboard-response",
		"trial_index": 331,
		"time_elapsed": 652532,
		"internal_node_id": "0.0-3.0-0.269-0.269"
	},
	{
		"rt": 911,
		"stimulus": "<span style=\"font-size:30px; font-family: monospace\">A</span>",
		"response": " ",
		"trial": "exp-sent",
		"word": "A",
		"trial_type": "html-keyboard-response",
		"trial_index": 332,
		"time_elapsed": 653706,
		"internal_node_id": "0.0-3.0-1.269"
	},
	{
		"rt": 872,
		"stimulus": "<span style=\"font-size:30px; font-family: monospace\">força</span>",
		"response": " ",
		"trial": "exp-sent",
		"word": "força",
		"trial_type": "html-keyboard-response",
		"trial_index": 333,
		"time_elapsed": 654833,
		"internal_node_id": "0.0-3.0-1.270"
	},
	{
		"rt": 566,
		"stimulus": "<span style=\"font-size:30px; font-family: monospace\">d'água</span>",
		"response": " ",
		"trial": "exp-sent",
		"word": "d'água",
		"trial_type": "html-keyboard-response",
		"trial_index": 334,
		"time_elapsed": 655653,
		"internal_node_id": "0.0-3.0-1.271"
	},
	{
		"rt": 599,
		"stimulus": "<span style=\"font-size:30px; font-family: monospace\">estava</span>",
		"response": " ",
		"trial": "exp-sent",
		"word": "estava",
		"trial_type": "html-keyboard-response",
		"trial_index": 335,
		"time_elapsed": 656510,
		"internal_node_id": "0.0-3.0-1.272"
	},
	{
		"rt": 576,
		"stimulus": "<span style=\"font-size:30px; font-family: monospace\">normal</span>",
		"response": " ",
		"trial": "exp-sent",
		"word": "normal",
		"trial_type": "html-keyboard-response",
		"trial_index": 336,
		"time_elapsed": 657345,
		"internal_node_id": "0.0-3.0-1.273"
	},
	{
		"rt": 746,
		"stimulus": "<span style=\"font-size:30px; font-family: monospace\">naquele</span>",
		"response": " ",
		"trial": "exp-sent",
		"word": "naquele",
		"trial_type": "html-keyboard-response",
		"trial_index": 337,
		"time_elapsed": 658344,
		"internal_node_id": "0.0-3.0-1.274"
	},
	{
		"rt": 923,
		"stimulus": "<span style=\"font-size:30px; font-family: monospace\">dia.</span>",
		"response": " ",
		"trial": "exp-sent",
		"word": "dia.",
		"trial_type": "html-keyboard-response",
		"trial_index": 338,
		"time_elapsed": 659530,
		"internal_node_id": "0.0-3.0-1.275"
	},
	{
		"rt": null,
		"stimulus": "<span style= \"font-size:30px; font-family: monospace\">+</span>",
		"response": null,
		"trial_part": "fixation",
		"trial_type": "html-keyboard-response",
		"trial_index": 339,
		"time_elapsed": 660818,
		"internal_node_id": "0.0-3.0-0.276-0.276"
	},
	{
		"rt": 72,
