[
	{
		"view_history": [
			{
				"page_index": 0,
				"viewing_time": 8072
			}
		],
		"rt": 8073,
		"trial_type": "instructions",
		"trial_index": 0,
		"time_elapsed": 8078,
		"internal_node_id": "0.0-0.0"
	},
	{
		"rt": 98275,
		"response": {
			"reading_habits_printed_magazines": "Raramente",
			"reading_habits_printed_newspapers": "Nunca",
			"reading_habits_books": "Raramente",
			"reading_habits_printed_socialmedias": "Raramente"
		},
		"question_order": [
			0,
			1,
			2,
			3
		],
		"trial_type": "survey-multi-choice",
		"trial_index": 1,
		"time_elapsed": 106476,
		"internal_node_id": "0.0-1.0"
	},
	{
		"rt": 83015,
		"response": {
			"reading_habits_virtual_magazines": "Alguns dias da semana",
			"reading_habits_virtual_newspapers": "Raramente",
			"reading_habits_books": "Raramente",
			"reading_habits_virtual_socialmedias": "Raramente"
		},
		"question_order": [
			0,
			1,
			2,
			3
		],
		"trial_type": "survey-multi-choice",
		"trial_index": 2,
		"time_elapsed": 189604,
		"internal_node_id": "0.0-2.0"
	},
	{
		"rt": 60816,
		"response": {
			"reading_habits_other_which": "Livros de cuidados de idosos",
			"reading_habits_other_frequency": "3 vezes por semana"
		},
		"trial_type": "survey-text",
		"trial_index": 3,
		"time_elapsed": 250543,
		"internal_node_id": "0.0-3.0"
	}
]