[
	{
		"view_history": [
			{
				"page_index": 0,
				"viewing_time": 18006
			},
			{
				"page_index": 1,
				"viewing_time": 7695
			}
		],
		"rt": 25701,
		"trial_type": "instructions",
		"trial_index": 0,
		"time_elapsed": 25705,
		"internal_node_id": "0.0-0.0"
	},
	{
		"rt": null,
		"stimulus": "<span style= \"font-size:30px; font-family: monospace\">+</span>",
		"response": null,
		"trial_part": "fixation",
		"trial_type": "html-keyboard-response",
		"trial_index": 1,
		"time_elapsed": 26832,
		"internal_node_id": "0.0-1.0-0.0-0.0"
	},
	{
		"rt": 1299,
		"stimulus": "../audio/prac-question-1-1.mp3",
		"response": " ",
		"word": "O",
		"trial_type": "audio-keyboard-response",
		"trial_index": 2,
		"time_elapsed": 31012,
		"internal_node_id": "0.0-1.0-1.0"
	},
	{
		"rt": 1160,
		"stimulus": "../audio/prac-question-1-2.mp3",
		"response": " ",
		"word": "dia",
		"trial_type": "audio-keyboard-response",
		"trial_index": 3,
		"time_elapsed": 32528,
		"internal_node_id": "0.0-1.0-1.1"
	},
	{
		"rt": 1400,
		"stimulus": "../audio/prac-question-1-3.mp3",
		"response": " ",
		"word": "estará",
		"trial_type": "audio-keyboard-response",
		"trial_index": 4,
		"time_elapsed": 34265,
		"internal_node_id": "0.0-1.0-1.2"
	},
	{
		"rt": 1179,
		"stimulus": "../audio/prac-question-1-4.mp3",
		"response": " ",
		"word": "cheio",
		"trial_type": "audio-keyboard-response",
		"trial_index": 5,
		"time_elapsed": 35781,
		"internal_node_id": "0.0-1.0-1.3"
	},
	{
		"rt": 1069,
		"stimulus": "../audio/prac-question-1-5.mp3",
		"response": " ",
		"word": "de",
		"trial_type": "audio-keyboard-response",
		"trial_index": 6,
		"time_elapsed": 37174,
		"internal_node_id": "0.0-1.0-1.4"
	},
	{
		"rt": 1400,
		"stimulus": "../audio/prac-question-1-6.mp3",
		"response": " ",
		"word": "nuvens",
		"trial_type": "audio-keyboard-response",
		"trial_index": 7,
		"time_elapsed": 38922,
		"internal_node_id": "0.0-1.0-1.5"
	},
	{
		"rt": 1171,
		"stimulus": "../audio/prac-question-1-7.mp3",
		"response": " ",
		"word": "hoje.",
		"trial_type": "audio-keyboard-response",
		"trial_index": 8,
		"time_elapsed": 40432,
		"internal_node_id": "0.0-1.0-1.6"
	},
	{
		"rt": null,
		"stimulus": "<span style= \"font-size:30px; font-family: monospace\">+</span>",
		"response": null,
		"trial_part": "fixation",
		"trial_type": "html-keyboard-response",
		"trial_index": 9,
		"time_elapsed": 41691,
		"internal_node_id": "0.0-1.0-0.7-0.7"
	},
	{
		"rt": 1040,
		"stimulus": "../audio/prac-question-2-1.mp3",
		"response": " ",
		"word": "A",
		"trial_type": "audio-keyboard-response",
		"trial_index": 10,
		"time_elapsed": 43079,
		"internal_node_id": "0.0-1.0-1.7"
	},
	{
		"rt": 1251,
		"stimulus": "../audio/prac-question-2-2.mp3",
		"response": " ",
		"word": "caneca",
		"trial_type": "audio-keyboard-response",
		"trial_index": 11,
		"time_elapsed": 44668,
		"internal_node_id": "0.0-1.0-1.8"
	},
	{
		"rt": 1320,
		"stimulus": "../audio/prac-question-2-3.mp3",
		"response": " ",
		"word": "colorida",
		"trial_type": "audio-keyboard-response",
		"trial_index": 12,
		"time_elapsed": 46339,
		"internal_node_id": "0.0-1.0-1.9"
	},
	{
		"rt": 1160,
		"stimulus": "../audio/prac-question-2-4.mp3",
		"response": " ",
		"word": "caiu",
		"trial_type": "audio-keyboard-response",
		"trial_index": 13,
		"time_elapsed": 47840,
		"internal_node_id": "0.0-1.0-1.10"
	},
	{
		"rt": 891,
		"stimulus": "../audio/prac-question-2-5.mp3",
		"response": " ",
		"word": "da",
		"trial_type": "audio-keyboard-response",
		"trial_index": 14,
		"time_elapsed": 49072,
		"internal_node_id": "0.0-1.0-1.11"
	},
	{
		"rt": 1259,
		"stimulus": "../audio/prac-question-2-6.mp3",
		"response": " ",
		"word": "mesa",
		"trial_type": "audio-keyboard-response",
		"trial_index": 15,
		"time_elapsed": 50662,
		"internal_node_id": "0.0-1.0-1.12"
	},
	{
		"rt": 979,
		"stimulus": "../audio/prac-question-2-7.mp3",
		"response": " ",
		"word": "de",
		"trial_type": "audio-keyboard-response",
		"trial_index": 16,
		"time_elapsed": 51982,
		"internal_node_id": "0.0-1.0-1.13"
	},
	{
		"rt": 1640,
		"stimulus": "../audio/prac-question-2-8.mp3",
		"response": " ",
		"word": "jantar.",
		"trial_type": "audio-keyboard-response",
		"trial_index": 17,
		"time_elapsed": 53965,
		"internal_node_id": "0.0-1.0-1.14"
	},
	{
		"rt": 5066,
		"stimulus": "<span style=\"font-size:25px; font-family: monospace\">A caneca era colorida?</span>",
		"response": "s",
		"question": "A caneca era colorida?",
		"answer": "null",
		"trial": "prac-sent",
		"trial_type": "html-keyboard-response",
		"trial_index": 18,
		"time_elapsed": 59287,
		"internal_node_id": "0.0-1.0-2.14-0.14",
		"accuracy": false
	},
	{
		"view_history": [
			{
				"page_index": 0,
				"viewing_time": 5205
			}
		],
		"rt": 5205,
		"trial_type": "instructions",
		"trial_index": 19,
		"time_elapsed": 65005,
		"internal_node_id": "0.0-2.0"
	},
	{
		"rt": null,
		"stimulus": "<span style= \"font-size:30px; font-family: monospace\">+</span>",
		"response": null,
		"trial_part": "fixation",
		"trial_type": "html-keyboard-response",
		"trial_index": 20,
		"time_elapsed": 66131,
		"internal_node_id": "0.0-3.0-0.0-0.0"
	},
	{
		"rt": 1101,
		"stimulus": "../audio/63-1-fem.mp3",
		"response": " ",
		"word": "A",
		"trial_type": "audio-keyboard-response",
		"trial_index": 21,
		"time_elapsed": 67591,
		"internal_node_id": "0.0-3.0-1.0"
	},
	{
		"rt": 1392,
		"stimulus": "../audio/63-2-fem.mp3",
		"response": " ",
		"word": "chuva",
		"trial_type": "audio-keyboard-response",
		"trial_index": 22,
		"time_elapsed": 69320,
		"internal_node_id": "0.0-3.0-1.1"
	},
	{
		"rt": 1139,
		"stimulus": "../audio/63-3-fem.mp3",
		"response": " ",
		"word": "entrou",
		"trial_type": "audio-keyboard-response",
		"trial_index": 23,
		"time_elapsed": 70810,
		"internal_node_id": "0.0-3.0-1.2"
	},
	{
		"rt": 960,
		"stimulus": "../audio/63-4-fem.mp3",
		"response": " ",
		"word": "pela",
		"trial_type": "audio-keyboard-response",
		"trial_index": 24,
		"time_elapsed": 72099,
		"internal_node_id": "0.0-3.0-1.3"
	},
	{
		"rt": 1499,
		"stimulus": "../audio/63-5-fem.mp3",
		"response": " ",
		"word": "abertura",
		"trial_type": "audio-keyboard-response",
		"trial_index": 25,
		"time_elapsed": 73938,
		"internal_node_id": "0.0-3.0-1.4"
	},
	{
		"rt": 891,
		"stimulus": "../audio/63-6-fem.mp3",
		"response": " ",
		"word": "na",
		"trial_type": "audio-keyboard-response",
		"trial_index": 26,
		"time_elapsed": 75161,
		"internal_node_id": "0.0-3.0-1.5"
	},
	{
		"rt": 1531,
		"stimulus": "../audio/63-7-fem.mp3",
		"response": " ",
		"word": "janela.",
		"trial_type": "audio-keyboard-response",
		"trial_index": 27,
		"time_elapsed": 77038,
		"internal_node_id": "0.0-3.0-1.6"
	},
	{
		"rt": null,
		"stimulus": "<span style= \"font-size:30px; font-family: monospace\">+</span>",
		"response": null,
		"trial_part": "fixation",
		"trial_type": "html-keyboard-response",
		"trial_index": 28,
		"time_elapsed": 78311,
		"internal_node_id": "0.0-3.0-0.7-0.7"
	},
	{
		"rt": 1171,
		"stimulus": "../audio/61-1-fem.mp3",
		"response": " ",
		"word": "Aquele",
		"trial_type": "audio-keyboard-response",
		"trial_index": 29,
		"time_elapsed": 79829,
		"internal_node_id": "0.0-3.0-1.7"
	},
	{
		"rt": 1208,
		"stimulus": "../audio/61-2-fem.mp3",
		"response": " ",
		"word": "senhor",
		"trial_type": "audio-keyboard-response",
		"trial_index": 30,
		"time_elapsed": 81366,
		"internal_node_id": "0.0-3.0-1.8"
	},
	{
		"rt": 771,
		"stimulus": "../audio/61-3-fem.mp3",
		"response": " ",
		"word": "é",
		"trial_type": "audio-keyboard-response",
		"trial_index": 31,
		"time_elapsed": 82458,
		"internal_node_id": "0.0-3.0-1.9"
	},
	{
		"rt": 1229,
		"stimulus": "../audio/61-4-fem.mp3",
		"response": " ",
		"word": "muito",
		"trial_type": "audio-keyboard-response",
		"trial_index": 32,
		"time_elapsed": 84020,
		"internal_node_id": "0.0-3.0-1.10"
	},
	{
		"rt": 1411,
		"stimulus": "../audio/61-5-fem.mp3",
		"response": " ",
		"word": "sovina",
		"trial_type": "audio-keyboard-response",
		"trial_index": 33,
		"time_elapsed": 85774,
		"internal_node_id": "0.0-3.0-1.11"
	},
	{
		"rt": 909,
		"stimulus": "../audio/61-6-fem.mp3",
		"response": " ",
		"word": "e",
		"trial_type": "audio-keyboard-response",
		"trial_index": 34,
		"time_elapsed": 87021,
		"internal_node_id": "0.0-3.0-1.12"
	},
	{
		"rt": 1960,
		"stimulus": "../audio/61-7-fem.mp3",
		"response": " ",
		"word": "inflexível.",
		"trial_type": "audio-keyboard-response",
		"trial_index": 35,
		"time_elapsed": 89284,
		"internal_node_id": "0.0-3.0-1.13"
	},
	{
		"rt": null,
		"stimulus": "<span style= \"font-size:30px; font-family: monospace\">+</span>",
		"response": null,
		"trial_part": "fixation",
		"trial_type": "html-keyboard-response",
		"trial_index": 36,
		"time_elapsed": 90570,
		"internal_node_id": "0.0-3.0-0.14-0.14"
	},
	{
		"rt": 1829,
		"stimulus": "../audio/62-1-masc.mp3",
		"response": " ",
		"word": "As",
		"trial_type": "audio-keyboard-response",
		"trial_index": 37,
		"time_elapsed": 92742,
		"internal_node_id": "0.0-3.0-1.14"
	},
	{
		"rt": 1491,
		"stimulus": "../audio/62-2-masc.mp3",
		"response": " ",
		"word": "artesãs",
		"trial_type": "audio-keyboard-response",
		"trial_index": 38,
		"time_elapsed": 94594,
		"internal_node_id": "0.0-3.0-1.15"
	},
	{
		"rt": 1059,
		"stimulus": "../audio/62-3-masc.mp3",
		"response": " ",
		"word": "gostam",
		"trial_type": "audio-keyboard-response",
		"trial_index": 39,
		"time_elapsed": 95973,
		"internal_node_id": "0.0-3.0-1.16"
	},
	{
		"rt": 851,
		"stimulus": "../audio/62-4-masc.mp3",
		"response": " ",
		"word": "de",
		"trial_type": "audio-keyboard-response",
		"trial_index": 40,
		"time_elapsed": 97153,
		"internal_node_id": "0.0-3.0-1.17"
	},
	{
		"rt": 1739,
		"stimulus": "../audio/62-5-masc.mp3",
		"response": " ",
		"word": "maquiagem",
		"trial_type": "audio-keyboard-response",
		"trial_index": 41,
		"time_elapsed": 99252,
		"internal_node_id": "0.0-3.0-1.18"
	},
	{
		"rt": 760,
		"stimulus": "../audio/62-6-masc.mp3",
		"response": " ",
		"word": "e",
		"trial_type": "audio-keyboard-response",
		"trial_index": 42,
		"time_elapsed": 100420,
		"internal_node_id": "0.0-3.0-1.19"
	},
	{
		"rt": 800,
		"stimulus": "../audio/62-7-masc.mp3",
		"response": " ",
		"word": "de",
		"trial_type": "audio-keyboard-response",
		"trial_index": 43,
		"time_elapsed": 101580,
		"internal_node_id": "0.0-3.0-1.20"
	},
	{
		"rt": 1259,
		"stimulus": "../audio/62-8-masc.mp3",
		"response": " ",
		"word": "crochê.",
		"trial_type": "audio-keyboard-response",
		"trial_index": 44,
		"time_elapsed": 103176,
		"internal_node_id": "0.0-3.0-1.21"
	},
	{
		"rt": null,
		"stimulus": "<span style= \"font-size:30px; font-family: monospace\">+</span>",
		"response": null,
		"trial_part": "fixation",
		"trial_type": "html-keyboard-response",
		"trial_index": 45,
		"time_elapsed": 104449,
		"internal_node_id": "0.0-3.0-0.22-0.22"
	},
	{
		"rt": 851,
		"stimulus": "../audio/64-1-masc.mp3",
		"response": " ",
		"word": "O",
		"trial_type": "audio-keyboard-response",
		"trial_index": 46,
		"time_elapsed": 105655,
		"internal_node_id": "0.0-3.0-1.22"
	},
	{
		"rt": 1021,
		"stimulus": "../audio/64-2-masc.mp3",
		"response": " ",
		"word": "dia",
		"trial_type": "audio-keyboard-response",
		"trial_index": 47,
		"time_elapsed": 106994,
		"internal_node_id": "0.0-3.0-1.23"
	},
	{
		"rt": 1072,
		"stimulus": "../audio/64-3-masc.mp3",
		"response": " ",
		"word": "começou",
		"trial_type": "audio-keyboard-response",
		"trial_index": 48,
		"time_elapsed": 108392,
		"internal_node_id": "0.0-3.0-1.24"
	},
	{
		"rt": 771,
		"stimulus": "../audio/64-4-masc.mp3",
		"response": " ",
		"word": "com",
		"trial_type": "audio-keyboard-response",
		"trial_index": 49,
		"time_elapsed": 109455,
		"internal_node_id": "0.0-3.0-1.25"
	},
	{
		"rt": 1280,
		"stimulus": "../audio/64-5-masc.mp3",
		"response": " ",
		"word": "garoa",
		"trial_type": "audio-keyboard-response",
		"trial_index": 50,
		"time_elapsed": 111079,
		"internal_node_id": "0.0-3.0-1.26"
	},
	{
		"rt": 1341,
		"stimulus": "../audio/64-6-masc.mp3",
		"response": " ",
		"word": "gelada",
		"trial_type": "audio-keyboard-response",
		"trial_index": 51,
		"time_elapsed": 112744,
		"internal_node_id": "0.0-3.0-1.27"
	},
	{
		"rt": 829,
		"stimulus": "../audio/64-7-masc.mp3",
		"response": " ",
		"word": "e",
		"trial_type": "audio-keyboard-response",
		"trial_index": 52,
		"time_elapsed": 113895,
		"internal_node_id": "0.0-3.0-1.28"
	},
	{
		"rt": 2021,
		"stimulus": "../audio/64-8-masc.mp3",
		"response": " ",
		"word": "leve.",
		"trial_type": "audio-keyboard-response",
		"trial_index": 53,
		"time_elapsed": 116235,
		"internal_node_id": "0.0-3.0-1.29"
	},
	{
		"rt": null,
		"stimulus": "<span style= \"font-size:30px; font-family: monospace\">+</span>",
		"response": null,
		"trial_part": "fixation",
		"trial_type": "html-keyboard-response",
		"trial_index": 54,
		"time_elapsed": 117510,
		"internal_node_id": "0.0-3.0-0.30-0.30"
	},
	{
		"rt": 880,
		"stimulus": "../audio/65-1-fem.mp3",
		"response": " ",
		"word": "O",
		"trial_type": "audio-keyboard-response",
		"trial_index": 55,
		"time_elapsed": 118726,
		"internal_node_id": "0.0-3.0-1.30"
	},
	{
		"rt": 1381,
		"stimulus": "../audio/65-2-fem.mp3",
		"response": " ",
		"word": "fantasma",
		"trial_type": "audio-keyboard-response",
		"trial_index": 56,
		"time_elapsed": 120469,
		"internal_node_id": "0.0-3.0-1.31"
	},
	{
		"rt": 1059,
		"stimulus": "../audio/65-3-fem.mp3",
		"response": " ",
		"word": "veio",
		"trial_type": "audio-keyboard-response",
		"trial_index": 57,
		"time_elapsed": 121857,
		"internal_node_id": "0.0-3.0-1.32"
	},
	{
		"rt": 920,
		"stimulus": "../audio/65-4-fem.mp3",
		"response": " ",
		"word": "da",
		"trial_type": "audio-keyboard-response",
		"trial_index": 58,
		"time_elapsed": 123100,
		"internal_node_id": "0.0-3.0-1.33"
	},
	{
		"rt": 1749,
		"stimulus": "../audio/65-5-fem.mp3",
		"response": " ",
		"word": "escuridão",
		"trial_type": "audio-keyboard-response",
		"trial_index": 59,
		"time_elapsed": 125183,
		"internal_node_id": "0.0-3.0-1.34"
	},
	{
		"rt": 779,
		"stimulus": "../audio/65-6-fem.mp3",
		"response": " ",
		"word": "do",
		"trial_type": "audio-keyboard-response",
		"trial_index": 60,
		"time_elapsed": 126334,
		"internal_node_id": "0.0-3.0-1.35"
	},
	{
		"rt": 1659,
		"stimulus": "../audio/65-7-fem.mp3",
		"response": " ",
		"word": "armário.",
		"trial_type": "audio-keyboard-response",
		"trial_index": 61,
		"time_elapsed": 128328,
		"internal_node_id": "0.0-3.0-1.36"
	},
	{
		"rt": 5195,
		"stimulus": "<span style=\"font-size:25px; font-family: monospace\">O fantasma veio da escuridão do armário?</span>",
		"response": "s",
		"question": "O fantasma veio da escuridão do armário?",
		"answer": "null",
		"trial": "exp-sent",
		"trial_type": "html-keyboard-response",
		"trial_index": 62,
		"time_elapsed": 133783,
		"internal_node_id": "0.0-3.0-2.36-0.36",
		"accuracy": false
	},
	{
		"rt": null,
		"stimulus": "<span style= \"font-size:30px; font-family: monospace\">+</span>",
		"response": null,
		"trial_part": "fixation",
		"trial_type": "html-keyboard-response",
		"trial_index": 63,
		"time_elapsed": 135301,
		"internal_node_id": "0.0-3.0-0.37-0.37"
	},
	{
		"rt": 1061,
		"stimulus": "../audio/72-1-masc.mp3",
		"response": " ",
		"word": "A",
		"trial_type": "audio-keyboard-response",
		"trial_index": 64,
		"time_elapsed": 136711,
		"internal_node_id": "0.0-3.0-1.37"
	},
	{
		"rt": 1480,
		"stimulus": "../audio/72-2-masc.mp3",
		"response": " ",
		"word": "vencedora",
		"trial_type": "audio-keyboard-response",
		"trial_index": 65,
		"time_elapsed": 138525,
		"internal_node_id": "0.0-3.0-1.38"
	},
	{
		"rt": 1149,
		"stimulus": "../audio/72-3-masc.mp3",
		"response": " ",
		"word": "recebeu",
		"trial_type": "audio-keyboard-response",
		"trial_index": 66,
		"time_elapsed": 140014,
		"internal_node_id": "0.0-3.0-1.39"
	},
	{
		"rt": 821,
		"stimulus": "../audio/72-4-masc.mp3",
		"response": " ",
		"word": "um",
		"trial_type": "audio-keyboard-response",
		"trial_index": 67,
		"time_elapsed": 141153,
		"internal_node_id": "0.0-3.0-1.40"
	},
	{
		"rt": 1181,
		"stimulus": "../audio/72-5-masc.mp3",
		"response": " ",
		"word": "prêmio",
		"trial_type": "audio-keyboard-response",
		"trial_index": 68,
		"time_elapsed": 142670,
		"internal_node_id": "0.0-3.0-1.41"
	},
	{
		"rt": 899,
		"stimulus": "../audio/72-6-masc.mp3",
		"response": " ",
		"word": "em",
		"trial_type": "audio-keyboard-response",
		"trial_index": 69,
		"time_elapsed": 143893,
		"internal_node_id": "0.0-3.0-1.42"
	},
	{
		"rt": 1741,
		"stimulus": "../audio/72-7-masc.mp3",
		"response": " ",
		"word": "dinheiro.",
		"trial_type": "audio-keyboard-response",
		"trial_index": 70,
		"time_elapsed": 145962,
		"internal_node_id": "0.0-3.0-1.43"
	},
	{
		"rt": null,
		"stimulus": "<span style= \"font-size:30px; font-family: monospace\">+</span>",
		"response": null,
		"trial_part": "fixation",
		"trial_type": "html-keyboard-response",
		"trial_index": 71,
		"time_elapsed": 147231,
		"internal_node_id": "0.0-3.0-0.44-0.44"
	},
	{
		"rt": 1171,
		"stimulus": "../audio/74-1-fem.mp3",
		"response": " ",
		"word": "Este",
		"trial_type": "audio-keyboard-response",
		"trial_index": 72,
		"time_elapsed": 148762,
		"internal_node_id": "0.0-3.0-1.44"
	},
	{
		"rt": 1379,
		"stimulus": "../audio/74-2-fem.mp3",
		"response": " ",
		"word": "emprego",
		"trial_type": "audio-keyboard-response",
		"trial_index": 73,
		"time_elapsed": 150490,
		"internal_node_id": "0.0-3.0-1.45"
	},
	{
		"rt": 752,
		"stimulus": "../audio/74-3-fem.mp3",
		"response": " ",
		"word": "é",
		"trial_type": "audio-keyboard-response",
		"trial_index": 74,
		"time_elapsed": 151555,
		"internal_node_id": "0.0-3.0-1.46"
	},
	{
		"rt": 1141,
		"stimulus": "../audio/74-4-fem.mp3",
		"response": " ",
		"word": "muito",
		"trial_type": "audio-keyboard-response",
		"trial_index": 75,
		"time_elapsed": 153039,
		"internal_node_id": "0.0-3.0-1.47"
	},
	{
		"rt": 1699,
		"stimulus": "../audio/74-5-fem.mp3",
		"response": " ",
		"word": "cansativo",
		"trial_type": "audio-keyboard-response",
		"trial_index": 76,
		"time_elapsed": 155083,
		"internal_node_id": "0.0-3.0-1.48"
	},
	{
		"rt": 749,
		"stimulus": "../audio/74-6-fem.mp3",
		"response": " ",
		"word": "a",
		"trial_type": "audio-keyboard-response",
		"trial_index": 77,
		"time_elapsed": 156181,
		"internal_node_id": "0.0-3.0-1.49"
	},
	{
		"rt": 1179,
		"stimulus": "../audio/74-7-fem.mp3",
		"response": " ",
		"word": "longo",
		"trial_type": "audio-keyboard-response",
		"trial_index": 78,
		"time_elapsed": 157701,
		"internal_node_id": "0.0-3.0-1.50"
	},
	{
		"rt": 1459,
		"stimulus": "../audio/74-8-fem.mp3",
		"response": " ",
		"word": "prazo.",
		"trial_type": "audio-keyboard-response",
		"trial_index": 79,
		"time_elapsed": 159496,
		"internal_node_id": "0.0-3.0-1.51"
	},
	{
		"rt": null,
		"stimulus": "<span style= \"font-size:30px; font-family: monospace\">+</span>",
		"response": null,
		"trial_part": "fixation",
		"trial_type": "html-keyboard-response",
		"trial_index": 80,
		"time_elapsed": 160760,
		"internal_node_id": "0.0-3.0-0.52-0.52"
	},
	{
		"rt": 789,
		"stimulus": "../audio/73-1-masc.mp3",
		"response": " ",
		"word": "O",
		"trial_type": "audio-keyboard-response",
		"trial_index": 81,
		"time_elapsed": 161896,
		"internal_node_id": "0.0-3.0-1.52"
	},
	{
		"rt": 1109,
		"stimulus": "../audio/73-2-masc.mp3",
		"response": " ",
		"word": "cliente",
		"trial_type": "audio-keyboard-response",
		"trial_index": 82,
		"time_elapsed": 163334,
		"internal_node_id": "0.0-3.0-1.53"
	},
	{
		"rt": 709,
		"stimulus": "../audio/73-3-masc.mp3",
		"response": " ",
		"word": "era",
		"trial_type": "audio-keyboard-response",
		"trial_index": 83,
		"time_elapsed": 164364,
		"internal_node_id": "0.0-3.0-1.54"
	},
	{
		"rt": 832,
		"stimulus": "../audio/73-4-masc.mp3",
		"response": " ",
		"word": "um",
		"trial_type": "audio-keyboard-response",
		"trial_index": 84,
		"time_elapsed": 165521,
		"internal_node_id": "0.0-3.0-1.55"
	},
	{
		"rt": 941,
		"stimulus": "../audio/73-5-masc.mp3",
		"response": " ",
		"word": "homem",
		"trial_type": "audio-keyboard-response",
		"trial_index": 85,
		"time_elapsed": 166798,
		"internal_node_id": "0.0-3.0-1.56"
	},
	{
		"rt": 1160,
		"stimulus": "../audio/73-6-masc.mp3",
		"response": " ",
		"word": "muito",
		"trial_type": "audio-keyboard-response",
		"trial_index": 86,
		"time_elapsed": 168285,
		"internal_node_id": "0.0-3.0-1.57"
	},
	{
		"rt": 1440,
		"stimulus": "../audio/73-7-masc.mp3",
		"response": " ",
		"word": "educado.",
		"trial_type": "audio-keyboard-response",
		"trial_index": 87,
		"time_elapsed": 170065,
		"internal_node_id": "0.0-3.0-1.58"
	},
	{
		"rt": null,
		"stimulus": "<span style= \"font-size:30px; font-family: monospace\">+</span>",
		"response": null,
		"trial_part": "fixation",
		"trial_type": "html-keyboard-response",
		"trial_index": 88,
		"time_elapsed": 171327,
		"internal_node_id": "0.0-3.0-0.59-0.59"
	},
	{
		"rt": 1160,
		"stimulus": "../audio/71-1-fem.mp3",
		"response": " ",
		"word": "Minhas",
		"trial_type": "audio-keyboard-response",
		"trial_index": 89,
		"time_elapsed": 172833,
		"internal_node_id": "0.0-3.0-1.59"
	},
	{
		"rt": 1080,
		"stimulus": "../audio/71-2-fem.mp3",
		"response": " ",
		"word": "comidas",
		"trial_type": "audio-keyboard-response",
		"trial_index": 90,
		"time_elapsed": 174241,
		"internal_node_id": "0.0-3.0-1.60"
	},
	{
		"rt": 1309,
		"stimulus": "../audio/71-3-fem.mp3",
		"response": " ",
		"word": "favoritas",
		"trial_type": "audio-keyboard-response",
		"trial_index": 91,
		"time_elapsed": 175903,
		"internal_node_id": "0.0-3.0-1.61"
	},
	{
		"rt": 1011,
		"stimulus": "../audio/71-4-fem.mp3",
		"response": " ",
		"word": "são",
		"trial_type": "audio-keyboard-response",
		"trial_index": 92,
		"time_elapsed": 177243,
		"internal_node_id": "0.0-3.0-1.62"
	},
	{
		"rt": 1240,
		"stimulus": "../audio/71-5-fem.mp3",
		"response": " ",
		"word": "morango",
		"trial_type": "audio-keyboard-response",
		"trial_index": 93,
		"time_elapsed": 178830,
		"internal_node_id": "0.0-3.0-1.63"
	},
	{
		"rt": 1072,
		"stimulus": "../audio/71-6-fem.mp3",
		"response": " ",
		"word": "e",
		"trial_type": "audio-keyboard-response",
		"trial_index": 94,
		"time_elapsed": 180239,
		"internal_node_id": "0.0-3.0-1.64"
	},
	{
		"rt": 1181,
		"stimulus": "../audio/71-7-fem.mp3",
		"response": " ",
		"word": "uva.",
		"trial_type": "audio-keyboard-response",
		"trial_index": 95,
		"time_elapsed": 181746,
		"internal_node_id": "0.0-3.0-1.65"
	},
	{
		"rt": null,
		"stimulus": "<span style= \"font-size:30px; font-family: monospace\">+</span>",
		"response": null,
		"trial_part": "fixation",
		"trial_type": "html-keyboard-response",
		"trial_index": 96,
		"time_elapsed": 183008,
		"internal_node_id": "0.0-3.0-0.66-0.66"
	},
	{
		"rt": 960,
		"stimulus": "../audio/75-1-fem.mp3",
		"response": " ",
		"word": "Só",
		"trial_type": "audio-keyboard-response",
		"trial_index": 97,
		"time_elapsed": 184322,
		"internal_node_id": "0.0-3.0-1.66"
	},
	{
		"rt": 1251,
		"stimulus": "../audio/75-2-fem.mp3",
		"response": " ",
		"word": "existe",
		"trial_type": "audio-keyboard-response",
		"trial_index": 98,
		"time_elapsed": 185910,
		"internal_node_id": "0.0-3.0-1.67"
	},
	{
		"rt": 880,
		"stimulus": "../audio/75-3-fem.mp3",
		"response": " ",
		"word": "uma",
		"trial_type": "audio-keyboard-response",
		"trial_index": 99,
		"time_elapsed": 187126,
		"internal_node_id": "0.0-3.0-1.68"
	},
	{
		"rt": 1069,
		"stimulus": "../audio/75-4-fem.mp3",
		"response": " ",
		"word": "pessoa",
		"trial_type": "audio-keyboard-response",
		"trial_index": 100,
		"time_elapsed": 188530,
		"internal_node_id": "0.0-3.0-1.69"
	},
	{
		"rt": 1371,
		"stimulus": "../audio/75-5-fem.mp3",
		"response": " ",
		"word": "canhota",
		"trial_type": "audio-keyboard-response",
		"trial_index": 101,
		"time_elapsed": 190238,
		"internal_node_id": "0.0-3.0-1.70"
	},
	{
		"rt": 1120,
		"stimulus": "../audio/75-6-fem.mp3",
		"response": " ",
		"word": "nesta",
		"trial_type": "audio-keyboard-response",
		"trial_index": 102,
		"time_elapsed": 191686,
		"internal_node_id": "0.0-3.0-1.71"
	},
	{
		"rt": 1400,
		"stimulus": "../audio/75-7-fem.mp3",
		"response": " ",
		"word": "cidade.",
		"trial_type": "audio-keyboard-response",
		"trial_index": 103,
		"time_elapsed": 193414,
		"internal_node_id": "0.0-3.0-1.72"
	},
	{
		"rt": 6580,
		"stimulus": "<span style=\"font-size:25px; font-family: monospace\">Só existe uma pessoa canhota na cidade?</span>",
		"response": "n",
		"question": "Só existe uma pessoa canhota na cidade?",
		"answer": "null",
		"trial": "exp-sent",
		"trial_type": "html-keyboard-response",
		"trial_index": 104,
		"time_elapsed": 200257,
		"internal_node_id": "0.0-3.0-2.72-0.72",
		"accuracy": false
	},
	{
		"rt": null,
		"stimulus": "<span style= \"font-size:30px; font-family: monospace\">+</span>",
		"response": null,
		"trial_part": "fixation",
		"trial_type": "html-keyboard-response",
		"trial_index": 105,
		"time_elapsed": 201771,
		"internal_node_id": "0.0-3.0-0.73-0.73"
	},
	{
		"rt": 1000,
		"stimulus": "../audio/13-1-masc.mp3",
		"response": " ",
		"word": "Para",
		"trial_type": "audio-keyboard-response",
		"trial_index": 106,
		"time_elapsed": 203106,
		"internal_node_id": "0.0-3.0-1.73"
	},
	{
		"rt": 861,
		"stimulus": "../audio/13-2-masc.mp3",
		"response": " ",
		"word": "mim",
		"trial_type": "audio-keyboard-response",
		"trial_index": 107,
		"time_elapsed": 204304,
		"internal_node_id": "0.0-3.0-1.74"
	},
	{
		"rt": 771,
		"stimulus": "../audio/13-3-masc.mp3",
		"response": " ",
		"word": "é",
		"trial_type": "audio-keyboard-response",
		"trial_index": 108,
		"time_elapsed": 205401,
		"internal_node_id": "0.0-3.0-1.75"
	},
	{
		"rt": 1021,
		"stimulus": "../audio/13-4-masc.mp3",
		"response": " ",
		"word": "muito",
		"trial_type": "audio-keyboard-response",
		"trial_index": 109,
		"time_elapsed": 206753,
		"internal_node_id": "0.0-3.0-1.76"
	},
	{
		"rt": 1069,
		"stimulus": "../audio/13-5-masc.mp3",
		"response": " ",
		"word": "difícil",
		"trial_type": "audio-keyboard-response",
		"trial_index": 110,
		"time_elapsed": 208152,
		"internal_node_id": "0.0-3.0-1.77"
	},
	{
		"rt": 1251,
		"stimulus": "../audio/13-6-masc.mp3",
		"response": " ",
		"word": "acordar",
		"trial_type": "audio-keyboard-response",
		"trial_index": 111,
		"time_elapsed": 209743,
		"internal_node_id": "0.0-3.0-1.78"
	},
	{
		"rt": 1219,
		"stimulus": "../audio/13-7-masc.mp3",
		"response": " ",
		"word": "cedo.",
		"trial_type": "audio-keyboard-response",
		"trial_index": 112,
		"time_elapsed": 211290,
		"internal_node_id": "0.0-3.0-1.79"
	},
	{
		"rt": null,
		"stimulus": "<span style= \"font-size:30px; font-family: monospace\">+</span>",
		"response": null,
		"trial_part": "fixation",
		"trial_type": "html-keyboard-response",
		"trial_index": 113,
		"time_elapsed": 212558,
		"internal_node_id": "0.0-3.0-0.80-0.80"
	},
	{
		"rt": 389,
		"stimulus": "../audio/14-1-masc.mp3",
		"response": " ",
		"word": "O",
		"trial_type": "audio-keyboard-response",
		"trial_index": 114,
		"time_elapsed": 213343,
		"internal_node_id": "0.0-3.0-1.80"
	},
	{
		"rt": 891,
		"stimulus": "../audio/14-2-masc.mp3",
		"response": " ",
		"word": "cachorro",
		"trial_type": "audio-keyboard-response",
		"trial_index": 115,
		"time_elapsed": 214579,
		"internal_node_id": "0.0-3.0-1.81"
	},
	{
		"rt": 731,
		"stimulus": "../audio/14-3-masc.mp3",
		"response": " ",
		"word": "é",
		"trial_type": "audio-keyboard-response",
		"trial_index": 116,
		"time_elapsed": 215624,
		"internal_node_id": "0.0-3.0-1.82"
	},
	{
		"rt": 1000,
		"stimulus": "../audio/14-4-masc.mp3",
		"response": " ",
		"word": "muito",
		"trial_type": "audio-keyboard-response",
		"trial_index": 117,
		"time_elapsed": 216955,
		"internal_node_id": "0.0-3.0-1.83"
	},
	{
		"rt": 1040,
		"stimulus": "../audio/14-5-masc.mp3",
		"response": " ",
		"word": "fiel",
		"trial_type": "audio-keyboard-response",
		"trial_index": 118,
		"time_elapsed": 218329,
		"internal_node_id": "0.0-3.0-1.84"
	},
	{
		"rt": 771,
		"stimulus": "../audio/14-6-masc.mp3",
		"response": " ",
		"word": "a",
		"trial_type": "audio-keyboard-response",
		"trial_index": 119,
		"time_elapsed": 219421,
		"internal_node_id": "0.0-3.0-1.85"
	},
	{
		"rt": 1059,
		"stimulus": "../audio/14-7-masc.mp3",
		"response": " ",
		"word": "seus",
		"trial_type": "audio-keyboard-response",
		"trial_index": 120,
		"time_elapsed": 220805,
		"internal_node_id": "0.0-3.0-1.86"
	},
	{
		"rt": 1291,
		"stimulus": "../audio/14-8-masc.mp3",
		"response": " ",
		"word": "donos.",
		"trial_type": "audio-keyboard-response",
		"trial_index": 121,
		"time_elapsed": 222441,
		"internal_node_id": "0.0-3.0-1.87"
	},
	{
		"rt": null,
		"stimulus": "<span style= \"font-size:30px; font-family: monospace\">+</span>",
		"response": null,
		"trial_part": "fixation",
		"trial_type": "html-keyboard-response",
		"trial_index": 122,
		"time_elapsed": 223712,
		"internal_node_id": "0.0-3.0-0.88-0.88"
	},
	{
		"rt": 701,
		"stimulus": "../audio/12-1-masc.mp3",
		"response": " ",
		"word": "O",
		"trial_type": "audio-keyboard-response",
		"trial_index": 123,
		"time_elapsed": 224791,
		"internal_node_id": "0.0-3.0-1.88"
	},
	{
		"rt": 808,
		"stimulus": "../audio/12-2-masc.mp3",
		"response": " ",
		"word": "dia",
		"trial_type": "audio-keyboard-response",
		"trial_index": 124,
		"time_elapsed": 225923,
		"internal_node_id": "0.0-3.0-1.89"
	},
	{
		"rt": 939,
		"stimulus": "../audio/12-3-masc.mp3",
		"response": " ",
		"word": "estava",
		"trial_type": "audio-keyboard-response",
		"trial_index": 125,
		"time_elapsed": 227207,
		"internal_node_id": "0.0-3.0-1.90"
	},
	{
		"rt": 1069,
		"stimulus": "../audio/12-4-masc.mp3",
		"response": " ",
		"word": "quente,",
		"trial_type": "audio-keyboard-response",
		"trial_index": 126,
		"time_elapsed": 228603,
		"internal_node_id": "0.0-3.0-1.91"
	},
	{
		"rt": 1029,
		"stimulus": "../audio/12-5-masc.mp3",
		"response": " ",
		"word": "tranquilo",
		"trial_type": "audio-keyboard-response",
		"trial_index": 127,
		"time_elapsed": 229981,
		"internal_node_id": "0.0-3.0-1.92"
	},
	{
		"rt": 771,
		"stimulus": "../audio/12-6-masc.mp3",
		"response": " ",
		"word": "e",
		"trial_type": "audio-keyboard-response",
		"trial_index": 128,
		"time_elapsed": 231074,
		"internal_node_id": "0.0-3.0-1.93"
	},
	{
		"rt": 1440,
		"stimulus": "../audio/12-7-masc.mp3",
		"response": " ",
		"word": "ensolarado.",
		"trial_type": "audio-keyboard-response",
		"trial_index": 129,
		"time_elapsed": 232843,
		"internal_node_id": "0.0-3.0-1.94"
	},
	{
		"rt": null,
		"stimulus": "<span style= \"font-size:30px; font-family: monospace\">+</span>",
		"response": null,
		"trial_part": "fixation",
		"trial_type": "html-keyboard-response",
		"trial_index": 130,
		"time_elapsed": 234109,
		"internal_node_id": "0.0-3.0-0.95-0.95"
	},
	{
		"rt": 851,
		"stimulus": "../audio/11-1-fem.mp3",
		"response": " ",
		"word": "Elas",
		"trial_type": "audio-keyboard-response",
		"trial_index": 131,
		"time_elapsed": 235313,
		"internal_node_id": "0.0-3.0-1.95"
	},
	{
		"rt": 680,
		"stimulus": "../audio/11-2-fem.mp3",
		"response": " ",
		"word": "gostam",
		"trial_type": "audio-keyboard-response",
		"trial_index": 132,
		"time_elapsed": 236323,
		"internal_node_id": "0.0-3.0-1.96"
	},
	{
		"rt": 1040,
		"stimulus": "../audio/11-3-fem.mp3",
		"response": " ",
		"word": "muito",
		"trial_type": "audio-keyboard-response",
		"trial_index": 133,
		"time_elapsed": 237702,
		"internal_node_id": "0.0-3.0-1.97"
	},
	{
		"rt": 821,
		"stimulus": "../audio/11-4-fem.mp3",
		"response": " ",
		"word": "de",
		"trial_type": "audio-keyboard-response",
		"trial_index": 134,
		"time_elapsed": 238825,
		"internal_node_id": "0.0-3.0-1.98"
	},
	{
		"rt": 1571,
		"stimulus": "../audio/11-5-fem.mp3",
		"response": " ",
		"word": "aritmética",
		"trial_type": "audio-keyboard-response",
		"trial_index": 135,
		"time_elapsed": 240748,
		"internal_node_id": "0.0-3.0-1.99"
	},
	{
		"rt": 760,
		"stimulus": "../audio/11-6-fem.mp3",
		"response": " ",
		"word": "e",
		"trial_type": "audio-keyboard-response",
		"trial_index": 136,
		"time_elapsed": 241825,
		"internal_node_id": "0.0-3.0-1.100"
	},
	{
		"rt": 829,
		"stimulus": "../audio/11-7-fem.mp3",
		"response": " ",
		"word": "de",
		"trial_type": "audio-keyboard-response",
		"trial_index": 137,
		"time_elapsed": 242984,
		"internal_node_id": "0.0-3.0-1.101"
	},
	{
		"rt": 1459,
		"stimulus": "../audio/11-8-fem.mp3",
		"response": " ",
		"word": "leitura.",
		"trial_type": "audio-keyboard-response",
		"trial_index": 138,
		"time_elapsed": 244774,
		"internal_node_id": "0.0-3.0-1.102"
	},
	{
		"rt": null,
		"stimulus": "<span style= \"font-size:30px; font-family: monospace\">+</span>",
		"response": null,
		"trial_part": "fixation",
		"trial_type": "html-keyboard-response",
		"trial_index": 139,
		"time_elapsed": 246040,
		"internal_node_id": "0.0-3.0-0.103-0.103"
	},
	{
		"rt": 840,
		"stimulus": "../audio/15-1-masc.mp3",
		"response": " ",
		"word": "Meu",
		"trial_type": "audio-keyboard-response",
		"trial_index": 140,
		"time_elapsed": 247252,
		"internal_node_id": "0.0-3.0-1.103"
	},
	{
		"rt": 869,
		"stimulus": "../audio/15-2-masc.mp3",
		"response": " ",
		"word": "primo",
		"trial_type": "audio-keyboard-response",
		"trial_index": 141,
		"time_elapsed": 248471,
		"internal_node_id": "0.0-3.0-1.104"
	},
	{
		"rt": 659,
		"stimulus": "../audio/15-3-masc.mp3",
		"response": " ",
		"word": "é",
		"trial_type": "audio-keyboard-response",
		"trial_index": 142,
		"time_elapsed": 249459,
		"internal_node_id": "0.0-3.0-1.105"
	},
	{
		"rt": 789,
		"stimulus": "../audio/15-4-masc.mp3",
		"response": " ",
		"word": "um",
		"trial_type": "audio-keyboard-response",
		"trial_index": 143,
		"time_elapsed": 250564,
		"internal_node_id": "0.0-3.0-1.106"
	},
	{
		"rt": 1000,
		"stimulus": "../audio/15-5-masc.mp3",
		"response": " ",
		"word": "grande",
		"trial_type": "audio-keyboard-response",
		"trial_index": 144,
		"time_elapsed": 251896,
		"internal_node_id": "0.0-3.0-1.107"
	},
	{
		"rt": 1451,
		"stimulus": "../audio/15-6-masc.mp3",
		"response": " ",
		"word": "vendedor",
		"trial_type": "audio-keyboard-response",
		"trial_index": 145,
		"time_elapsed": 253674,
		"internal_node_id": "0.0-3.0-1.108"
	},
	{
		"rt": 651,
		"stimulus": "../audio/15-7-masc.mp3",
		"response": " ",
		"word": "de",
		"trial_type": "audio-keyboard-response",
		"trial_index": 146,
		"time_elapsed": 254682,
		"internal_node_id": "0.0-3.0-1.109"
	},
	{
		"rt": 1261,
		"stimulus": "../audio/15-8-masc.mp3",
		"response": " ",
		"word": "carros.",
		"trial_type": "audio-keyboard-response",
		"trial_index": 147,
		"time_elapsed": 256312,
		"internal_node_id": "0.0-3.0-1.110"
	},
	{
		"rt": 8223,
		"stimulus": "<span style=\"font-size:25px; font-family: monospace\">O primo é um vendedor de carros?</span>",
		"response": "s",
		"question": "O primo é um vendedor de carros?",
		"answer": "null",
		"trial": "exp-sent",
		"trial_type": "html-keyboard-response",
		"trial_index": 148,
		"time_elapsed": 264804,
		"internal_node_id": "0.0-3.0-2.110-0.110",
		"accuracy": false
	},
	{
		"rt": null,
		"stimulus": "<span style= \"font-size:30px; font-family: monospace\">+</span>",
		"response": null,
		"trial_part": "fixation",
		"trial_type": "html-keyboard-response",
		"trial_index": 149,
		"time_elapsed": 266321,
		"internal_node_id": "0.0-3.0-0.111-0.111"
	},
	{
		"rt": 811,
		"stimulus": "../audio/56-1-masc.mp3",
		"response": " ",
		"word": "A",
		"trial_type": "audio-keyboard-response",
		"trial_index": 150,
		"time_elapsed": 267474,
		"internal_node_id": "0.0-3.0-1.111"
	},
	{
		"rt": 979,
		"stimulus": "../audio/56-2-masc.mp3",
		"response": " ",
		"word": "moça",
		"trial_type": "audio-keyboard-response",
		"trial_index": 151,
		"time_elapsed": 268773,
		"internal_node_id": "0.0-3.0-1.112"
	},
	{
		"rt": 1000,
		"stimulus": "../audio/56-3-masc.mp3",
		"response": " ",
		"word": "foi",
		"trial_type": "audio-keyboard-response",
		"trial_index": 152,
		"time_elapsed": 270095,
		"internal_node_id": "0.0-3.0-1.113"
	},
	{
		"rt": 880,
		"stimulus": "../audio/56-4-masc.mp3",
		"response": " ",
		"word": "à",
		"trial_type": "audio-keyboard-response",
		"trial_index": 153,
		"time_elapsed": 271305,
		"internal_node_id": "0.0-3.0-1.114"
	},
	{
		"rt": 1451,
		"stimulus": "../audio/56-5-masc.mp3",
		"response": " ",
		"word": "agência",
		"trial_type": "audio-keyboard-response",
		"trial_index": 154,
		"time_elapsed": 273103,
		"internal_node_id": "0.0-3.0-1.115"
	},
	{
		"rt": 1181,
		"stimulus": "../audio/56-6-masc.mp3",
		"response": " ",
		"word": "bancária",
		"trial_type": "audio-keyboard-response",
		"trial_index": 155,
		"time_elapsed": 274627,
		"internal_node_id": "0.0-3.0-1.116"
	},
	{
		"rt": 680,
		"stimulus": "../audio/56-7-masc.mp3",
		"response": " ",
		"word": "ontem",
		"trial_type": "audio-keyboard-response",
		"trial_index": 156,
		"time_elapsed": 275655,
		"internal_node_id": "0.0-3.0-1.117"
	},
	{
		"rt": 739,
		"stimulus": "../audio/56-8-masc.mp3",
		"response": " ",
		"word": "de",
		"trial_type": "audio-keyboard-response",
		"trial_index": 157,
		"time_elapsed": 276739,
		"internal_node_id": "0.0-3.0-1.118"
	},
	{
		"rt": 1309,
		"stimulus": "../audio/56-9-masc.mp3",
		"response": " ",
		"word": "tarde.",
		"trial_type": "audio-keyboard-response",
		"trial_index": 158,
		"time_elapsed": 278371,
		"internal_node_id": "0.0-3.0-1.119"
	},
	{
		"rt": null,
		"stimulus": "<span style= \"font-size:30px; font-family: monospace\">+</span>",
		"response": null,
		"trial_part": "fixation",
		"trial_type": "html-keyboard-response",
		"trial_index": 159,
		"time_elapsed": 279642,
		"internal_node_id": "0.0-3.0-0.120-0.120"
	},
	{
		"rt": 699,
		"stimulus": "../audio/59-1-fem.mp3",
		"response": " ",
		"word": "O",
		"trial_type": "audio-keyboard-response",
		"trial_index": 160,
		"time_elapsed": 280692,
		"internal_node_id": "0.0-3.0-1.120"
	},
	{
		"rt": 1299,
		"stimulus": "../audio/59-2-fem.mp3",
		"response": " ",
		"word": "carteiro",
		"trial_type": "audio-keyboard-response",
		"trial_index": 161,
		"time_elapsed": 282335,
		"internal_node_id": "0.0-3.0-1.121"
	},
	{
		"rt": 1080,
		"stimulus": "../audio/59-3-fem.mp3",
		"response": " ",
		"word": "fez",
		"trial_type": "audio-keyboard-response",
		"trial_index": 162,
		"time_elapsed": 283739,
		"internal_node_id": "0.0-3.0-1.122"
	},
	{
		"rt": 931,
		"stimulus": "../audio/59-4-fem.mp3",
		"response": " ",
		"word": "uma",
		"trial_type": "audio-keyboard-response",
		"trial_index": 163,
		"time_elapsed": 285027,
		"internal_node_id": "0.0-3.0-1.123"
	},
	{
		"rt": 909,
		"stimulus": "../audio/59-5-fem.mp3",
		"response": " ",
		"word": "tentativa",
		"trial_type": "audio-keyboard-response",
		"trial_index": 164,
		"time_elapsed": 286285,
		"internal_node_id": "0.0-3.0-1.124"
	},
	{
		"rt": 872,
		"stimulus": "../audio/59-6-fem.mp3",
		"response": " ",
		"word": "de",
		"trial_type": "audio-keyboard-response",
		"trial_index": 165,
		"time_elapsed": 287476,
		"internal_node_id": "0.0-3.0-1.125"
	},
	{
		"rt": 1080,
		"stimulus": "../audio/59-7-fem.mp3",
		"response": " ",
		"word": "entrega.",
		"trial_type": "audio-keyboard-response",
		"trial_index": 166,
		"time_elapsed": 288897,
		"internal_node_id": "0.0-3.0-1.126"
	},
	{
		"rt": null,
		"stimulus": "<span style= \"font-size:30px; font-family: monospace\">+</span>",
		"response": null,
		"trial_part": "fixation",
		"trial_type": "html-keyboard-response",
		"trial_index": 167,
		"time_elapsed": 290165,
		"internal_node_id": "0.0-3.0-0.127-0.127"
	},
	{
		"rt": 779,
		"stimulus": "../audio/57-1-fem.mp3",
		"response": " ",
		"word": "O",
		"trial_type": "audio-keyboard-response",
		"trial_index": 168,
		"time_elapsed": 291287,
		"internal_node_id": "0.0-3.0-1.127"
	},
	{
		"rt": 1301,
		"stimulus": "../audio/57-2-fem.mp3",
		"response": " ",
		"word": "capitão",
		"trial_type": "audio-keyboard-response",
		"trial_index": 169,
		"time_elapsed": 292913,
		"internal_node_id": "0.0-3.0-1.128"
	},
	{
		"rt": 771,
		"stimulus": "../audio/57-3-fem.mp3",
		"response": " ",
		"word": "deu",
		"trial_type": "audio-keyboard-response",
		"trial_index": 170,
		"time_elapsed": 293998,
		"internal_node_id": "0.0-3.0-1.129"
	},
	{
		"rt": 960,
		"stimulus": "../audio/57-4-fem.mp3",
		"response": " ",
		"word": "uma",
		"trial_type": "audio-keyboard-response",
		"trial_index": 171,
		"time_elapsed": 295286,
		"internal_node_id": "0.0-3.0-1.130"
	},
	{
		"rt": 1539,
		"stimulus": "../audio/57-5-fem.mp3",
		"response": " ",
		"word": "instrução",
		"trial_type": "audio-keyboard-response",
		"trial_index": 172,
		"time_elapsed": 297171,
		"internal_node_id": "0.0-3.0-1.131"
	},
	{
		"rt": 1019,
		"stimulus": "../audio/57-6-fem.mp3",
		"response": " ",
		"word": "para",
		"trial_type": "audio-keyboard-response",
		"trial_index": 173,
		"time_elapsed": 298524,
		"internal_node_id": "0.0-3.0-1.132"
	},
	{
		"rt": 800,
		"stimulus": "../audio/57-7-fem.mp3",
		"response": " ",
		"word": "as",
		"trial_type": "audio-keyboard-response",
		"trial_index": 174,
		"time_elapsed": 299669,
		"internal_node_id": "0.0-3.0-1.133"
	},
	{
		"rt": 1448,
		"stimulus": "../audio/57-8-fem.mp3",
		"response": " ",
		"word": "pessoas.",
		"trial_type": "audio-keyboard-response",
		"trial_index": 175,
		"time_elapsed": 301450,
		"internal_node_id": "0.0-3.0-1.134"
	},
	{
		"rt": null,
		"stimulus": "<span style= \"font-size:30px; font-family: monospace\">+</span>",
		"response": null,
		"trial_part": "fixation",
		"trial_type": "html-keyboard-response",
		"trial_index": 176,
		"time_elapsed": 302720,
		"internal_node_id": "0.0-3.0-0.135-0.135"
	},
	{
		"rt": 1048,
		"stimulus": "../audio/58-1-masc.mp3",
		"response": " ",
		"word": "Havia",
		"trial_type": "audio-keyboard-response",
		"trial_index": 177,
		"time_elapsed": 304130,
		"internal_node_id": "0.0-3.0-1.135"
	},
	{
		"rt": 1141,
		"stimulus": "../audio/58-2-masc.mp3",
		"response": " ",
		"word": "apenas",
		"trial_type": "audio-keyboard-response",
		"trial_index": 178,
		"time_elapsed": 305599,
		"internal_node_id": "0.0-3.0-1.136"
	},
	{
		"rt": 832,
		"stimulus": "../audio/58-3-masc.mp3",
		"response": " ",
		"word": "um",
		"trial_type": "audio-keyboard-response",
		"trial_index": 179,
		"time_elapsed": 306757,
		"internal_node_id": "0.0-3.0-1.137"
	},
	{
		"rt": 789,
		"stimulus": "../audio/58-4-masc.mp3",
		"response": " ",
		"word": "último",
		"trial_type": "audio-keyboard-response",
		"trial_index": 180,
		"time_elapsed": 307887,
		"internal_node_id": "0.0-3.0-1.138"
	},
	{
		"rt": 1261,
		"stimulus": "../audio/58-5-masc.mp3",
		"response": " ",
		"word": "herdeiro",
		"trial_type": "audio-keyboard-response",
		"trial_index": 181,
		"time_elapsed": 309474,
		"internal_node_id": "0.0-3.0-1.139"
	},
	{
		"rt": 792,
		"stimulus": "../audio/58-6-masc.mp3",
		"response": " ",
		"word": "do",
		"trial_type": "audio-keyboard-response",
		"trial_index": 182,
		"time_elapsed": 310601,
		"internal_node_id": "0.0-3.0-1.140"
	},
	{
		"rt": 1789,
		"stimulus": "../audio/58-7-masc.mp3",
		"response": " ",
		"word": "dinheiro.",
		"trial_type": "audio-keyboard-response",
		"trial_index": 183,
		"time_elapsed": 312731,
		"internal_node_id": "0.0-3.0-1.141"
	},
	{
		"rt": null,
		"stimulus": "<span style= \"font-size:30px; font-family: monospace\">+</span>",
		"response": null,
		"trial_part": "fixation",
		"trial_type": "html-keyboard-response",
		"trial_index": 184,
		"time_elapsed": 314005,
		"internal_node_id": "0.0-3.0-0.142-0.142"
	},
	{
		"rt": 1269,
		"stimulus": "../audio/60-1-fem.mp3",
		"response": " ",
		"word": "Ondas",
		"trial_type": "audio-keyboard-response",
		"trial_index": 185,
		"time_elapsed": 315659,
		"internal_node_id": "0.0-3.0-1.142"
	},
	{
		"rt": 821,
		"stimulus": "../audio/60-2-fem.mp3",
		"response": " ",
		"word": "têm",
		"trial_type": "audio-keyboard-response",
		"trial_index": 186,
		"time_elapsed": 316793,
		"internal_node_id": "0.0-3.0-1.143"
	},
	{
		"rt": 1189,
		"stimulus": "../audio/60-3-fem.mp3",
		"response": " ",
		"word": "um",
		"trial_type": "audio-keyboard-response",
		"trial_index": 187,
		"time_elapsed": 318326,
		"internal_node_id": "0.0-3.0-1.144"
	},
	{
		"rt": 1309,
		"stimulus": "../audio/60-4-fem.mp3",
		"response": " ",
		"word": "impacto",
		"trial_type": "audio-keyboard-response",
		"trial_index": 188,
		"time_elapsed": 319979,
		"internal_node_id": "0.0-3.0-1.145"
	},
	{
		"rt": 1160,
		"stimulus": "../audio/60-5-fem.mp3",
		"response": " ",
		"word": "destrutivo",
		"trial_type": "audio-keyboard-response",
		"trial_index": 189,
		"time_elapsed": 321486,
		"internal_node_id": "0.0-3.0-1.146"
	},
	{
		"rt": 1069,
		"stimulus": "../audio/60-6-fem.mp3",
		"response": " ",
		"word": "no",
		"trial_type": "audio-keyboard-response",
		"trial_index": 190,
		"time_elapsed": 322890,
		"internal_node_id": "0.0-3.0-1.147"
	},
	{
		"rt": 1429,
		"stimulus": "../audio/60-7-fem.mp3",
		"response": " ",
		"word": "litoral.",
		"trial_type": "audio-keyboard-response",
		"trial_index": 191,
		"time_elapsed": 324653,
		"internal_node_id": "0.0-3.0-1.148"
	},
	{
		"rt": 7729,
		"stimulus": "<span style=\"font-size:25px; font-family: monospace\">Ondas têm um impacto destrutivo?</span>",
		"response": "s",
		"question": "Ondas têm um impacto destrutivo?",
		"answer": "null",
		"trial": "exp-sent",
		"trial_type": "html-keyboard-response",
		"trial_index": 192,
		"time_elapsed": 332640,
		"internal_node_id": "0.0-3.0-2.148-0.148",
		"accuracy": false
	},
	{
		"rt": null,
		"stimulus": "<span style= \"font-size:30px; font-family: monospace\">+</span>",
		"response": null,
		"trial_part": "fixation",
		"trial_type": "html-keyboard-response",
		"trial_index": 193,
		"time_elapsed": 334165,
		"internal_node_id": "0.0-3.0-0.149-0.149"
	},
	{
		"rt": 328,
		"stimulus": "../audio/28-1-masc.mp3",
		"response": " ",
		"word": "O",
		"trial_type": "audio-keyboard-response",
		"trial_index": 194,
		"time_elapsed": 334848,
		"internal_node_id": "0.0-3.0-1.149"
	},
	{
		"rt": 1171,
		"stimulus": "../audio/28-2-masc.mp3",
		"response": " ",
		"word": "time",
		"trial_type": "audio-keyboard-response",
		"trial_index": 195,
		"time_elapsed": 336334,
		"internal_node_id": "0.0-3.0-1.150"
	},
	{
		"rt": 981,
		"stimulus": "../audio/28-3-masc.mp3",
		"response": " ",
		"word": "quer",
		"trial_type": "audio-keyboard-response",
		"trial_index": 196,
		"time_elapsed": 337637,
		"internal_node_id": "0.0-3.0-1.151"
	},
	{
		"rt": 859,
		"stimulus": "../audio/28-4-masc.mp3",
		"response": " ",
		"word": "a",
		"trial_type": "audio-keyboard-response",
		"trial_index": 197,
		"time_elapsed": 338803,
		"internal_node_id": "0.0-3.0-1.152"
	},
	{
		"rt": 1320,
		"stimulus": "../audio/28-5-masc.mp3",
		"response": " ",
		"word": "vitória",
		"trial_type": "audio-keyboard-response",
		"trial_index": 198,
		"time_elapsed": 340475,
		"internal_node_id": "0.0-3.0-1.153"
	},
	{
		"rt": 880,
		"stimulus": "../audio/28-6-masc.mp3",
		"response": " ",
		"word": "no",
		"trial_type": "audio-keyboard-response",
		"trial_index": 199,
		"time_elapsed": 341692,
		"internal_node_id": "0.0-3.0-1.154"
	},
	{
		"rt": 931,
		"stimulus": "../audio/28-7-masc.mp3",
		"response": " ",
		"word": "jogo",
		"trial_type": "audio-keyboard-response",
		"trial_index": 200,
		"time_elapsed": 342960,
		"internal_node_id": "0.0-3.0-1.155"
	},
	{
		"rt": 920,
		"stimulus": "../audio/28-8-masc.mp3",
		"response": " ",
		"word": "de",
		"trial_type": "audio-keyboard-response",
		"trial_index": 201,
		"time_elapsed": 344202,
		"internal_node_id": "0.0-3.0-1.156"
	},
	{
		"rt": 1160,
		"stimulus": "../audio/28-9-masc.mp3",
		"response": " ",
		"word": "vôlei.",
		"trial_type": "audio-keyboard-response",
		"trial_index": 202,
		"time_elapsed": 345684,
		"internal_node_id": "0.0-3.0-1.157"
	},
	{
		"rt": null,
		"stimulus": "<span style= \"font-size:30px; font-family: monospace\">+</span>",
		"response": null,
		"trial_part": "fixation",
		"trial_type": "html-keyboard-response",
		"trial_index": 203,
		"time_elapsed": 346946,
		"internal_node_id": "0.0-3.0-0.158-0.158"
	},
	{
		"rt": 411,
		"stimulus": "../audio/26-1-masc.mp3",
		"response": " ",
		"word": "Amanhã",
		"trial_type": "audio-keyboard-response",
		"trial_index": 204,
		"time_elapsed": 347716,
		"internal_node_id": "0.0-3.0-1.158"
	},
	{
		"rt": 1061,
		"stimulus": "../audio/26-2-masc.mp3",
		"response": " ",
		"word": "temos",
		"trial_type": "audio-keyboard-response",
		"trial_index": 205,
		"time_elapsed": 349110,
		"internal_node_id": "0.0-3.0-1.159"
	},
	{
		"rt": 1109,
		"stimulus": "../audio/26-3-masc.mp3",
		"response": " ",
		"word": "festa",
		"trial_type": "audio-keyboard-response",
		"trial_index": 206,
		"time_elapsed": 350547,
		"internal_node_id": "0.0-3.0-1.160"
	},
	{
		"rt": 920,
		"stimulus": "../audio/26-4-masc.mp3",
		"response": " ",
		"word": "na",
		"trial_type": "audio-keyboard-response",
		"trial_index": 207,
		"time_elapsed": 351795,
		"internal_node_id": "0.0-3.0-1.161"
	},
	{
		"rt": 1080,
		"stimulus": "../audio/26-5-masc.mp3",
		"response": " ",
		"word": "piscina",
		"trial_type": "audio-keyboard-response",
		"trial_index": 208,
		"time_elapsed": 353193,
		"internal_node_id": "0.0-3.0-1.162"
	},
	{
		"rt": 800,
		"stimulus": "../audio/26-6-masc.mp3",
		"response": " ",
		"word": "o",
		"trial_type": "audio-keyboard-response",
		"trial_index": 209,
		"time_elapsed": 354300,
		"internal_node_id": "0.0-3.0-1.163"
	},
	{
		"rt": 1069,
		"stimulus": "../audio/26-7-masc.mp3",
		"response": " ",
		"word": "dia",
		"trial_type": "audio-keyboard-response",
		"trial_index": 210,
		"time_elapsed": 355729,
		"internal_node_id": "0.0-3.0-1.164"
	},
	{
		"rt": 1920,
		"stimulus": "../audio/26-8-masc.mp3",
		"response": " ",
		"word": "todo.",
		"trial_type": "audio-keyboard-response",
		"trial_index": 211,
		"time_elapsed": 357971,
		"internal_node_id": "0.0-3.0-1.165"
	},
	{
		"rt": null,
		"stimulus": "<span style= \"font-size:30px; font-family: monospace\">+</span>",
		"response": null,
		"trial_part": "fixation",
		"trial_type": "html-keyboard-response",
		"trial_index": 212,
		"time_elapsed": 359231,
		"internal_node_id": "0.0-3.0-0.166-0.166"
	},
	{
		"rt": 1069,
		"stimulus": "../audio/29-1-masc.mp3",
		"response": " ",
		"word": "Hoje",
		"trial_type": "audio-keyboard-response",
		"trial_index": 213,
		"time_elapsed": 360659,
		"internal_node_id": "0.0-3.0-1.166"
	},
	{
		"rt": 1160,
		"stimulus": "../audio/29-2-masc.mp3",
		"response": " ",
		"word": "vamos",
		"trial_type": "audio-keyboard-response",
		"trial_index": 214,
		"time_elapsed": 362152,
		"internal_node_id": "0.0-3.0-1.167"
	},
	{
		"rt": 989,
		"stimulus": "../audio/29-3-masc.mp3",
		"response": " ",
		"word": "fazer",
		"trial_type": "audio-keyboard-response",
		"trial_index": 215,
		"time_elapsed": 363463,
		"internal_node_id": "0.0-3.0-1.168"
	},
	{
		"rt": 901,
		"stimulus": "../audio/29-4-masc.mp3",
		"response": " ",
		"word": "uma",
		"trial_type": "audio-keyboard-response",
		"trial_index": 216,
		"time_elapsed": 364715,
		"internal_node_id": "0.0-3.0-1.169"
	},
	{
		"rt": 1528,
		"stimulus": "../audio/29-5-masc.mp3",
		"response": " ",
		"word": "atividade",
		"trial_type": "audio-keyboard-response",
		"trial_index": 217,
		"time_elapsed": 366606,
		"internal_node_id": "0.0-3.0-1.170"
	},
	{
		"rt": 1109,
		"stimulus": "../audio/29-6-masc.mp3",
		"response": " ",
		"word": "sobre",
		"trial_type": "audio-keyboard-response",
		"trial_index": 218,
		"time_elapsed": 368044,
		"internal_node_id": "0.0-3.0-1.171"
	},
	{
		"rt": 1171,
		"stimulus": "../audio/29-7-masc.mp3",
		"response": " ",
		"word": "fauna",
		"trial_type": "audio-keyboard-response",
		"trial_index": 219,
		"time_elapsed": 369558,
		"internal_node_id": "0.0-3.0-1.172"
	},
	{
		"rt": 2280,
		"stimulus": "../audio/29-8-masc.mp3",
		"response": " ",
		"word": "marinha.",
		"trial_type": "audio-keyboard-response",
		"trial_index": 220,
		"time_elapsed": 372493,
		"internal_node_id": "0.0-3.0-1.173"
	},
	{
		"rt": null,
		"stimulus": "<span style= \"font-size:30px; font-family: monospace\">+</span>",
		"response": null,
		"trial_part": "fixation",
		"trial_type": "html-keyboard-response",
		"trial_index": 221,
		"time_elapsed": 373770,
		"internal_node_id": "0.0-3.0-0.174-0.174"
	},
	{
		"rt": 749,
		"stimulus": "../audio/27-1-masc.mp3",
		"response": " ",
		"word": "O",
		"trial_type": "audio-keyboard-response",
		"trial_index": 222,
		"time_elapsed": 374894,
		"internal_node_id": "0.0-3.0-1.174"
	},
	{
		"rt": 1160,
		"stimulus": "../audio/27-2-masc.mp3",
		"response": " ",
		"word": "dinheiro",
		"trial_type": "audio-keyboard-response",
		"trial_index": 223,
		"time_elapsed": 376398,
		"internal_node_id": "0.0-3.0-1.175"
	},
	{
		"rt": 1011,
		"stimulus": "../audio/27-3-masc.mp3",
		"response": " ",
		"word": "chegou",
		"trial_type": "audio-keyboard-response",
		"trial_index": 224,
		"time_elapsed": 377737,
		"internal_node_id": "0.0-3.0-1.176"
	},
	{
		"rt": 808,
		"stimulus": "../audio/27-4-masc.mp3",
		"response": " ",
		"word": "à",
		"trial_type": "audio-keyboard-response",
		"trial_index": 225,
		"time_elapsed": 378883,
		"internal_node_id": "0.0-3.0-1.177"
	},
	{
		"rt": 1141,
		"stimulus": "../audio/27-5-masc.mp3",
		"response": " ",
		"word": "elite",
		"trial_type": "audio-keyboard-response",
		"trial_index": 226,
		"time_elapsed": 380357,
		"internal_node_id": "0.0-3.0-1.178"
	},
	{
		"rt": 1000,
		"stimulus": "../audio/27-6-masc.mp3",
		"response": " ",
		"word": "deste",
		"trial_type": "audio-keyboard-response",
		"trial_index": 227,
		"time_elapsed": 381708,
		"internal_node_id": "0.0-3.0-1.179"
	},
	{
		"rt": 1760,
		"stimulus": "../audio/27-7-masc.mp3",
		"response": " ",
		"word": "país.",
		"trial_type": "audio-keyboard-response",
		"trial_index": 228,
		"time_elapsed": 383802,
		"internal_node_id": "0.0-3.0-1.180"
	},
	{
		"rt": null,
		"stimulus": "<span style= \"font-size:30px; font-family: monospace\">+</span>",
		"response": null,
		"trial_part": "fixation",
		"trial_type": "html-keyboard-response",
		"trial_index": 229,
		"time_elapsed": 385061,
		"internal_node_id": "0.0-3.0-0.181-0.181"
	},
	{
		"rt": 792,
		"stimulus": "../audio/30-1-fem.mp3",
		"response": " ",
		"word": "O",
		"trial_type": "audio-keyboard-response",
		"trial_index": 230,
		"time_elapsed": 386196,
		"internal_node_id": "0.0-3.0-1.181"
	},
	{
		"rt": 1379,
		"stimulus": "../audio/30-2-fem.mp3",
		"response": " ",
		"word": "funcionário",
		"trial_type": "audio-keyboard-response",
		"trial_index": 231,
		"time_elapsed": 387935,
		"internal_node_id": "0.0-3.0-1.182"
	},
	{
		"rt": 1248,
		"stimulus": "../audio/30-3-fem.mp3",
		"response": " ",
		"word": "entregou",
		"trial_type": "audio-keyboard-response",
		"trial_index": 232,
		"time_elapsed": 389532,
		"internal_node_id": "0.0-3.0-1.183"
	},
	{
		"rt": 789,
		"stimulus": "../audio/30-4-fem.mp3",
		"response": " ",
		"word": "o",
		"trial_type": "audio-keyboard-response",
		"trial_index": 233,
		"time_elapsed": 390659,
		"internal_node_id": "0.0-3.0-1.184"
	},
	{
		"rt": 1341,
		"stimulus": "../audio/30-5-fem.mp3",
		"response": " ",
		"word": "restante",
		"trial_type": "audio-keyboard-response",
		"trial_index": 234,
		"time_elapsed": 392351,
		"internal_node_id": "0.0-3.0-1.185"
	},
	{
		"rt": 760,
		"stimulus": "../audio/30-6-fem.mp3",
		"response": " ",
		"word": "do",
		"trial_type": "audio-keyboard-response",
		"trial_index": 235,
		"time_elapsed": 393439,
		"internal_node_id": "0.0-3.0-1.186"
	},
	{
		"rt": 1891,
		"stimulus": "../audio/30-7-fem.mp3",
		"response": " ",
		"word": "dinheiro.",
		"trial_type": "audio-keyboard-response",
		"trial_index": 236,
		"time_elapsed": 395663,
		"internal_node_id": "0.0-3.0-1.187"
	},
	{
		"rt": 4004,
		"stimulus": "<span style=\"font-size:25px; font-family: monospace\">O funcionário entregou o contrato?</span>",
		"response": "n",
		"question": "O funcionário entregou o contrato?",
		"answer": "null",
		"trial": "exp-sent",
		"trial_type": "html-keyboard-response",
		"trial_index": 237,
		"time_elapsed": 399921,
		"internal_node_id": "0.0-3.0-2.187-0.187",
		"accuracy": false
	},
	{
		"rt": null,
		"stimulus": "<span style= \"font-size:30px; font-family: monospace\">+</span>",
		"response": null,
		"trial_part": "fixation",
		"trial_type": "html-keyboard-response",
		"trial_index": 238,
		"time_elapsed": 401443,
		"internal_node_id": "0.0-3.0-0.188-0.188"
	},
	{
		"rt": 240,
		"stimulus": "../audio/44-1-fem.mp3",
		"response": " ",
		"word": "Meus",
		"trial_type": "audio-keyboard-response",
		"trial_index": 239,
		"time_elapsed": 402043,
		"internal_node_id": "0.0-3.0-1.188"
	},
	{
		"rt": 1440,
		"stimulus": "../audio/44-2-fem.mp3",
		"response": " ",
		"word": "irmãos",
		"trial_type": "audio-keyboard-response",
		"trial_index": 240,
		"time_elapsed": 403822,
		"internal_node_id": "0.0-3.0-1.189"
	},
	{
		"rt": 989,
		"stimulus": "../audio/44-3-fem.mp3",
		"response": " ",
		"word": "brigam",
		"trial_type": "audio-keyboard-response",
		"trial_index": 241,
		"time_elapsed": 405146,
		"internal_node_id": "0.0-3.0-1.190"
	},
	{
		"rt": 789,
		"stimulus": "../audio/44-4-fem.mp3",
		"response": " ",
		"word": "por",
		"trial_type": "audio-keyboard-response",
		"trial_index": 242,
		"time_elapsed": 406257,
		"internal_node_id": "0.0-3.0-1.191"
	},
	{
		"rt": 1280,
		"stimulus": "../audio/44-5-fem.mp3",
		"response": " ",
		"word": "bobagem",
		"trial_type": "audio-keyboard-response",
		"trial_index": 243,
		"time_elapsed": 407892,
		"internal_node_id": "0.0-3.0-1.192"
	},
	{
		"rt": 1019,
		"stimulus": "../audio/44-6-fem.mp3",
		"response": " ",
		"word": "todos",
		"trial_type": "audio-keyboard-response",
		"trial_index": 244,
		"time_elapsed": 409244,
		"internal_node_id": "0.0-3.0-1.193"
	},
	{
		"rt": 872,
		"stimulus": "../audio/44-7-fem.mp3",
		"response": " ",
		"word": "os",
		"trial_type": "audio-keyboard-response",
		"trial_index": 245,
		"time_elapsed": 410437,
		"internal_node_id": "0.0-3.0-1.194"
	},
	{
		"rt": 1200,
		"stimulus": "../audio/44-8-fem.mp3",
		"response": " ",
		"word": "dias.",
		"trial_type": "audio-keyboard-response",
		"trial_index": 246,
		"time_elapsed": 411983,
		"internal_node_id": "0.0-3.0-1.195"
	},
	{
		"rt": null,
		"stimulus": "<span style= \"font-size:30px; font-family: monospace\">+</span>",
		"response": null,
		"trial_part": "fixation",
		"trial_type": "html-keyboard-response",
		"trial_index": 247,
		"time_elapsed": 413247,
		"internal_node_id": "0.0-3.0-0.196-0.196"
	},
	{
		"rt": 781,
		"stimulus": "../audio/42-1-fem.mp3",
		"response": " ",
		"word": "Eu",
		"trial_type": "audio-keyboard-response",
		"trial_index": 248,
		"time_elapsed": 414438,
		"internal_node_id": "0.0-3.0-1.196"
	},
	{
		"rt": 931,
		"stimulus": "../audio/42-2-fem.mp3",
		"response": " ",
		"word": "fui",
		"trial_type": "audio-keyboard-response",
		"trial_index": 249,
		"time_elapsed": 415673,
		"internal_node_id": "0.0-3.0-1.197"
	},
	{
		"rt": 840,
		"stimulus": "../audio/42-3-fem.mp3",
		"response": " ",
		"word": "a",
		"trial_type": "audio-keyboard-response",
		"trial_index": 250,
		"time_elapsed": 416833,
		"internal_node_id": "0.0-3.0-1.198"
	},
	{
		"rt": 869,
		"stimulus": "../audio/42-4-fem.mp3",
		"response": " ",
		"word": "uma",
		"trial_type": "audio-keyboard-response",
		"trial_index": 251,
		"time_elapsed": 418032,
		"internal_node_id": "0.0-3.0-1.199"
	},
	{
		"rt": 1051,
		"stimulus": "../audio/42-5-fem.mp3",
		"response": " ",
		"word": "loja",
		"trial_type": "audio-keyboard-response",
		"trial_index": 252,
		"time_elapsed": 419430,
		"internal_node_id": "0.0-3.0-1.200"
	},
	{
		"rt": 779,
		"stimulus": "../audio/42-6-fem.mp3",
		"response": " ",
		"word": "de",
		"trial_type": "audio-keyboard-response",
		"trial_index": 253,
		"time_elapsed": 420541,
		"internal_node_id": "0.0-3.0-1.201"
	},
	{
		"rt": 1152,
		"stimulus": "../audio/42-7-fem.mp3",
		"response": " ",
		"word": "móveis",
		"trial_type": "audio-keyboard-response",
		"trial_index": 254,
		"time_elapsed": 422034,
		"internal_node_id": "0.0-3.0-1.202"
	},
	{
		"rt": 869,
		"stimulus": "../audio/42-8-fem.mp3",
		"response": " ",
		"word": "no",
		"trial_type": "audio-keyboard-response",
		"trial_index": 255,
		"time_elapsed": 423231,
		"internal_node_id": "0.0-3.0-1.203"
	},
	{
		"rt": 1488,
		"stimulus": "../audio/42-9-fem.mp3",
		"response": " ",
		"word": "bairro.",
		"trial_type": "audio-keyboard-response",
		"trial_index": 256,
		"time_elapsed": 425045,
		"internal_node_id": "0.0-3.0-1.204"
	},
	{
		"rt": null,
		"stimulus": "<span style= \"font-size:30px; font-family: monospace\">+</span>",
		"response": null,
		"trial_part": "fixation",
		"trial_type": "html-keyboard-response",
		"trial_index": 257,
		"time_elapsed": 426315,
		"internal_node_id": "0.0-3.0-0.205-0.205"
	},
	{
		"rt": 891,
		"stimulus": "../audio/43-1-masc.mp3",
		"response": " ",
		"word": "Eu",
		"trial_type": "audio-keyboard-response",
		"trial_index": 258,
		"time_elapsed": 427545,
		"internal_node_id": "0.0-3.0-1.205"
	},
	{
		"rt": 920,
		"stimulus": "../audio/43-2-masc.mp3",
		"response": " ",
		"word": "achei",
		"trial_type": "audio-keyboard-response",
		"trial_index": 259,
		"time_elapsed": 428798,
		"internal_node_id": "0.0-3.0-1.206"
	},
	{
		"rt": 832,
		"stimulus": "../audio/43-3-masc.mp3",
		"response": " ",
		"word": "um",
		"trial_type": "audio-keyboard-response",
		"trial_index": 260,
		"time_elapsed": 429956,
		"internal_node_id": "0.0-3.0-1.207"
	},
	{
		"rt": 1109,
		"stimulus": "../audio/43-4-masc.mp3",
		"response": " ",
		"word": "colchão",
		"trial_type": "audio-keyboard-response",
		"trial_index": 261,
		"time_elapsed": 431411,
		"internal_node_id": "0.0-3.0-1.208"
	},
	{
		"rt": 1061,
		"stimulus": "../audio/43-5-masc.mp3",
		"response": " ",
		"word": "velho",
		"trial_type": "audio-keyboard-response",
		"trial_index": 262,
		"time_elapsed": 432797,
		"internal_node_id": "0.0-3.0-1.209"
	},
	{
		"rt": 811,
		"stimulus": "../audio/43-6-masc.mp3",
		"response": " ",
		"word": "e",
		"trial_type": "audio-keyboard-response",
		"trial_index": 263,
		"time_elapsed": 433917,
		"internal_node_id": "0.0-3.0-1.210"
	},
	{
		"rt": 1101,
		"stimulus": "../audio/43-7-masc.mp3",
		"response": " ",
		"word": "imundo",
		"trial_type": "audio-keyboard-response",
		"trial_index": 264,
		"time_elapsed": 435352,
		"internal_node_id": "0.0-3.0-1.211"
	},
	{
		"rt": 872,
		"stimulus": "../audio/43-8-masc.mp3",
		"response": " ",
		"word": "na",
		"trial_type": "audio-keyboard-response",
		"trial_index": 265,
		"time_elapsed": 436560,
		"internal_node_id": "0.0-3.0-1.212"
	},
	{
		"rt": 1411,
		"stimulus": "../audio/43-9-masc.mp3",
		"response": " ",
		"word": "casa.",
		"trial_type": "audio-keyboard-response",
		"trial_index": 266,
		"time_elapsed": 438293,
		"internal_node_id": "0.0-3.0-1.213"
	},
	{
		"rt": null,
		"stimulus": "<span style= \"font-size:30px; font-family: monospace\">+</span>",
		"response": null,
		"trial_part": "fixation",
		"trial_type": "html-keyboard-response",
		"trial_index": 267,
		"time_elapsed": 439552,
		"internal_node_id": "0.0-3.0-0.214-0.214"
	},
	{
		"rt": 760,
		"stimulus": "../audio/41-1-masc.mp3",
		"response": " ",
		"word": "A",
		"trial_type": "audio-keyboard-response",
		"trial_index": 268,
		"time_elapsed": 440671,
		"internal_node_id": "0.0-3.0-1.214"
	},
	{
		"rt": 1040,
		"stimulus": "../audio/41-2-masc.mp3",
		"response": " ",
		"word": "novela",
		"trial_type": "audio-keyboard-response",
		"trial_index": 269,
		"time_elapsed": 442062,
		"internal_node_id": "0.0-3.0-1.215"
	},
	{
		"rt": 1000,
		"stimulus": "../audio/41-3-masc.mp3",
		"response": " ",
		"word": "falava",
		"trial_type": "audio-keyboard-response",
		"trial_index": 270,
		"time_elapsed": 443397,
		"internal_node_id": "0.0-3.0-1.216"
	},
	{
		"rt": 752,
		"stimulus": "../audio/41-4-masc.mp3",
		"response": " ",
		"word": "de",
		"trial_type": "audio-keyboard-response",
		"trial_index": 271,
		"time_elapsed": 444476,
		"internal_node_id": "0.0-3.0-1.217"
	},
	{
		"rt": 1040,
		"stimulus": "../audio/41-5-masc.mp3",
		"response": " ",
		"word": "paixão",
		"trial_type": "audio-keyboard-response",
		"trial_index": 272,
		"time_elapsed": 445844,
		"internal_node_id": "0.0-3.0-1.218"
	},
	{
		"rt": 749,
		"stimulus": "../audio/41-6-masc.mp3",
		"response": " ",
		"word": "e",
		"trial_type": "audio-keyboard-response",
		"trial_index": 273,
		"time_elapsed": 446904,
		"internal_node_id": "0.0-3.0-1.219"
	},
	{
		"rt": 1691,
		"stimulus": "../audio/41-7-masc.mp3",
		"response": " ",
		"word": "comédia.",
		"trial_type": "audio-keyboard-response",
		"trial_index": 274,
		"time_elapsed": 448933,
		"internal_node_id": "0.0-3.0-1.220"
	},
	{
		"rt": null,
		"stimulus": "<span style= \"font-size:30px; font-family: monospace\">+</span>",
		"response": null,
		"trial_part": "fixation",
		"trial_type": "html-keyboard-response",
		"trial_index": 275,
		"time_elapsed": 450210,
		"internal_node_id": "0.0-3.0-0.221-0.221"
	},
	{
		"rt": 741,
		"stimulus": "../audio/45-1-masc.mp3",
		"response": " ",
		"word": "O",
		"trial_type": "audio-keyboard-response",
		"trial_index": 276,
		"time_elapsed": 451309,
		"internal_node_id": "0.0-3.0-1.221"
	},
	{
		"rt": 861,
		"stimulus": "../audio/45-2-masc.mp3",
		"response": " ",
		"word": "homem",
		"trial_type": "audio-keyboard-response",
		"trial_index": 277,
		"time_elapsed": 452510,
		"internal_node_id": "0.0-3.0-1.222"
	},
	{
		"rt": 880,
		"stimulus": "../audio/45-3-masc.mp3",
		"response": " ",
		"word": "pagou",
		"trial_type": "audio-keyboard-response",
		"trial_index": 278,
		"time_elapsed": 453716,
		"internal_node_id": "0.0-3.0-1.223"
	},
	{
		"rt": 739,
		"stimulus": "../audio/45-4-masc.mp3",
		"response": " ",
		"word": "o",
		"trial_type": "audio-keyboard-response",
		"trial_index": 279,
		"time_elapsed": 454782,
		"internal_node_id": "0.0-3.0-1.224"
	},
	{
		"rt": 1011,
		"stimulus": "../audio/45-5-masc.mp3",
		"response": " ",
		"word": "aluguel",
		"trial_type": "audio-keyboard-response",
		"trial_index": 280,
		"time_elapsed": 456122,
		"internal_node_id": "0.0-3.0-1.225"
	},
	{
		"rt": 760,
		"stimulus": "../audio/45-6-masc.mp3",
		"response": " ",
		"word": "com",
		"trial_type": "audio-keyboard-response",
		"trial_index": 281,
		"time_elapsed": 457200,
		"internal_node_id": "0.0-3.0-1.226"
	},
	{
		"rt": 1819,
		"stimulus": "../audio/45-7-masc.mp3",
		"response": " ",
		"word": "atraso.",
		"trial_type": "audio-keyboard-response",
		"trial_index": 282,
		"time_elapsed": 459373,
		"internal_node_id": "0.0-3.0-1.227"
	},
	{
		"rt": 4073,
		"stimulus": "<span style=\"font-size:25px; font-family: monospace\">O homem pagou o aluguel em dia?</span>",
		"response": "n",
		"question": "O homem pagou o aluguel em dia?",
		"answer": "null",
		"trial": "exp-sent",
		"trial_type": "html-keyboard-response",
		"trial_index": 283,
		"time_elapsed": 463711,
		"internal_node_id": "0.0-3.0-2.227-0.227",
		"accuracy": false
	},
	{
		"rt": null,
		"stimulus": "<span style= \"font-size:30px; font-family: monospace\">+</span>",
		"response": null,
		"trial_part": "fixation",
		"trial_type": "html-keyboard-response",
		"trial_index": 284,
		"time_elapsed": 465225,
		"internal_node_id": "0.0-3.0-0.228-0.228"
	},
	{
		"rt": 1520,
		"stimulus": "../audio/34-1-fem.mp3",
		"response": " ",
		"word": "Cobrança",
		"trial_type": "audio-keyboard-response",
		"trial_index": 285,
		"time_elapsed": 467112,
		"internal_node_id": "0.0-3.0-1.228"
	},
	{
		"rt": 1739,
		"stimulus": "../audio/34-2-fem.mp3",
		"response": " ",
		"word": "excessiva",
		"trial_type": "audio-keyboard-response",
		"trial_index": 286,
		"time_elapsed": 469204,
		"internal_node_id": "0.0-3.0-1.229"
	},
	{
		"rt": 709,
		"stimulus": "../audio/34-3-fem.mp3",
		"response": " ",
		"word": "é",
		"trial_type": "audio-keyboard-response",
		"trial_index": 287,
		"time_elapsed": 470262,
		"internal_node_id": "0.0-3.0-1.230"
	},
	{
		"rt": 891,
		"stimulus": "../audio/34-4-fem.mp3",
		"response": " ",
		"word": "um",
		"trial_type": "audio-keyboard-response",
		"trial_index": 288,
		"time_elapsed": 471473,
		"internal_node_id": "0.0-3.0-1.231"
	},
	{
		"rt": 1160,
		"stimulus": "../audio/34-5-fem.mp3",
		"response": " ",
		"word": "fardo",
		"trial_type": "audio-keyboard-response",
		"trial_index": 289,
		"time_elapsed": 472983,
		"internal_node_id": "0.0-3.0-1.232"
	},
	{
		"rt": 971,
		"stimulus": "../audio/34-6-fem.mp3",
		"response": " ",
		"word": "para",
		"trial_type": "audio-keyboard-response",
		"trial_index": 290,
		"time_elapsed": 474264,
		"internal_node_id": "0.0-3.0-1.233"
	},
	{
		"rt": 808,
		"stimulus": "../audio/34-7-fem.mp3",
		"response": " ",
		"word": "a",
		"trial_type": "audio-keyboard-response",
		"trial_index": 291,
		"time_elapsed": 475412,
		"internal_node_id": "0.0-3.0-1.234"
	},
	{
		"rt": 1408,
		"stimulus": "../audio/34-8-fem.mp3",
		"response": " ",
		"word": "cabeça.",
		"trial_type": "audio-keyboard-response",
		"trial_index": 292,
		"time_elapsed": 477172,
		"internal_node_id": "0.0-3.0-1.235"
	},
	{
		"rt": null,
		"stimulus": "<span style= \"font-size:30px; font-family: monospace\">+</span>",
		"response": null,
		"trial_part": "fixation",
		"trial_type": "html-keyboard-response",
		"trial_index": 293,
		"time_elapsed": 478435,
		"internal_node_id": "0.0-3.0-0.236-0.236"
	},
	{
		"rt": 840,
		"stimulus": "../audio/32-1-masc.mp3",
		"response": " ",
		"word": "A",
		"trial_type": "audio-keyboard-response",
		"trial_index": 294,
		"time_elapsed": 479641,
		"internal_node_id": "0.0-3.0-1.236"
	},
	{
		"rt": 931,
		"stimulus": "../audio/32-2-masc.mp3",
		"response": " ",
		"word": "tia",
		"trial_type": "audio-keyboard-response",
		"trial_index": 295,
		"time_elapsed": 480893,
		"internal_node_id": "0.0-3.0-1.237"
	},
	{
		"rt": 989,
		"stimulus": "../audio/32-3-masc.mp3",
		"response": " ",
		"word": "comprou",
		"trial_type": "audio-keyboard-response",
		"trial_index": 296,
		"time_elapsed": 482215,
		"internal_node_id": "0.0-3.0-1.238"
	},
	{
		"rt": 701,
		"stimulus": "../audio/32-4-masc.mp3",
		"response": " ",
		"word": "um",
		"trial_type": "audio-keyboard-response",
		"trial_index": 297,
		"time_elapsed": 483234,
		"internal_node_id": "0.0-3.0-1.239"
	},
	{
		"rt": 1160,
		"stimulus": "../audio/32-5-masc.mp3",
		"response": " ",
		"word": "pilão",
		"trial_type": "audio-keyboard-response",
		"trial_index": 298,
		"time_elapsed": 484733,
		"internal_node_id": "0.0-3.0-1.240"
	},
	{
		"rt": 941,
		"stimulus": "../audio/32-6-masc.mp3",
		"response": " ",
		"word": "para",
		"trial_type": "audio-keyboard-response",
		"trial_index": 299,
		"time_elapsed": 485994,
		"internal_node_id": "0.0-3.0-1.241"
	},
	{
		"rt": 760,
		"stimulus": "../audio/32-7-masc.mp3",
		"response": " ",
		"word": "a",
		"trial_type": "audio-keyboard-response",
		"trial_index": 300,
		"time_elapsed": 487075,
		"internal_node_id": "0.0-3.0-1.242"
	},
	{
		"rt": 1291,
		"stimulus": "../audio/32-8-masc.mp3",
		"response": " ",
		"word": "cozinha.",
		"trial_type": "audio-keyboard-response",
		"trial_index": 301,
		"time_elapsed": 488701,
		"internal_node_id": "0.0-3.0-1.243"
	},
	{
		"rt": null,
		"stimulus": "<span style= \"font-size:30px; font-family: monospace\">+</span>",
		"response": null,
		"trial_part": "fixation",
		"trial_type": "html-keyboard-response",
		"trial_index": 302,
		"time_elapsed": 489966,
		"internal_node_id": "0.0-3.0-0.244-0.244"
	},
	{
		"rt": 960,
		"stimulus": "../audio/33-1-fem.mp3",
		"response": " ",
		"word": "Eles",
		"trial_type": "audio-keyboard-response",
		"trial_index": 303,
		"time_elapsed": 491299,
		"internal_node_id": "0.0-3.0-1.244"
	},
	{
		"rt": 1179,
		"stimulus": "../audio/33-2-fem.mp3",
		"response": " ",
		"word": "sabem",
		"trial_type": "audio-keyboard-response",
		"trial_index": 304,
		"time_elapsed": 492820,
		"internal_node_id": "0.0-3.0-1.245"
	},
	{
		"rt": 869,
		"stimulus": "../audio/33-3-fem.mp3",
		"response": " ",
		"word": "do",
		"trial_type": "audio-keyboard-response",
		"trial_index": 305,
		"time_elapsed": 494016,
		"internal_node_id": "0.0-3.0-1.246"
	},
	{
		"rt": 1109,
		"stimulus": "../audio/33-4-fem.mp3",
		"response": " ",
		"word": "seu",
		"trial_type": "audio-keyboard-response",
		"trial_index": 306,
		"time_elapsed": 495454,
		"internal_node_id": "0.0-3.0-1.247"
	},
	{
		"rt": 1619,
		"stimulus": "../audio/33-5-fem.mp3",
		"response": " ",
		"word": "privilégio",
		"trial_type": "audio-keyboard-response",
		"trial_index": 307,
		"time_elapsed": 497416,
		"internal_node_id": "0.0-3.0-1.248"
	},
	{
		"rt": 1211,
		"stimulus": "../audio/33-6-fem.mp3",
		"response": " ",
		"word": "nessa",
		"trial_type": "audio-keyboard-response",
		"trial_index": 308,
		"time_elapsed": 498976,
		"internal_node_id": "0.0-3.0-1.249"
	},
	{
		"rt": 1560,
		"stimulus": "../audio/33-7-fem.mp3",
		"response": " ",
		"word": "confusão.",
		"trial_type": "audio-keyboard-response",
		"trial_index": 309,
		"time_elapsed": 500889,
		"internal_node_id": "0.0-3.0-1.250"
	},
	{
		"rt": null,
		"stimulus": "<span style= \"font-size:30px; font-family: monospace\">+</span>",
		"response": null,
		"trial_part": "fixation",
		"trial_type": "html-keyboard-response",
		"trial_index": 310,
		"time_elapsed": 502160,
		"internal_node_id": "0.0-3.0-0.251-0.251"
	},
	{
		"rt": 749,
		"stimulus": "../audio/31-1-fem.mp3",
		"response": " ",
		"word": "O",
		"trial_type": "audio-keyboard-response",
		"trial_index": 311,
		"time_elapsed": 503262,
		"internal_node_id": "0.0-3.0-1.251"
	},
	{
		"rt": 1272,
		"stimulus": "../audio/31-2-fem.mp3",
		"response": " ",
		"word": "padeiro",
		"trial_type": "audio-keyboard-response",
		"trial_index": 312,
		"time_elapsed": 504879,
		"internal_node_id": "0.0-3.0-1.252"
	},
	{
		"rt": 1080,
		"stimulus": "../audio/31-3-fem.mp3",
		"response": " ",
		"word": "usou",
		"trial_type": "audio-keyboard-response",
		"trial_index": 313,
		"time_elapsed": 506303,
		"internal_node_id": "0.0-3.0-1.253"
	},
	{
		"rt": 699,
		"stimulus": "../audio/31-4-fem.mp3",
		"response": " ",
		"word": "a",
		"trial_type": "audio-keyboard-response",
		"trial_index": 314,
		"time_elapsed": 507329,
		"internal_node_id": "0.0-3.0-1.254"
	},
	{
		"rt": 1331,
		"stimulus": "../audio/31-5-fem.mp3",
		"response": " ",
		"word": "balança",
		"trial_type": "audio-keyboard-response",
		"trial_index": 315,
		"time_elapsed": 508994,
		"internal_node_id": "0.0-3.0-1.255"
	},
	{
		"rt": 800,
		"stimulus": "../audio/31-6-fem.mp3",
		"response": " ",
		"word": "o",
		"trial_type": "audio-keyboard-response",
		"trial_index": 316,
		"time_elapsed": 510144,
		"internal_node_id": "0.0-3.0-1.256"
	},
	{
		"rt": 1139,
		"stimulus": "../audio/31-7-fem.mp3",
		"response": " ",
		"word": "dia",
		"trial_type": "audio-keyboard-response",
		"trial_index": 317,
		"time_elapsed": 511613,
		"internal_node_id": "0.0-3.0-1.257"
	},
	{
		"rt": 1869,
		"stimulus": "../audio/31-8-fem.mp3",
		"response": " ",
		"word": "inteiro.",
		"trial_type": "audio-keyboard-response",
		"trial_index": 318,
		"time_elapsed": 513817,
		"internal_node_id": "0.0-3.0-1.258"
	},
	{
		"rt": null,
		"stimulus": "<span style= \"font-size:30px; font-family: monospace\">+</span>",
		"response": null,
		"trial_part": "fixation",
		"trial_type": "html-keyboard-response",
		"trial_index": 319,
		"time_elapsed": 515091,
		"internal_node_id": "0.0-3.0-0.259-0.259"
	},
	{
		"rt": 800,
		"stimulus": "../audio/35-1-masc.mp3",
		"response": " ",
		"word": "A",
		"trial_type": "audio-keyboard-response",
		"trial_index": 320,
		"time_elapsed": 516274,
		"internal_node_id": "0.0-3.0-1.259"
	},
	{
		"rt": 1061,
		"stimulus": "../audio/35-2-masc.mp3",
		"response": " ",
		"word": "receita",
		"trial_type": "audio-keyboard-response",
		"trial_index": 321,
		"time_elapsed": 517681,
		"internal_node_id": "0.0-3.0-1.260"
	},
	{
		"rt": 1021,
		"stimulus": "../audio/35-3-masc.mp3",
		"response": " ",
		"word": "para",
		"trial_type": "audio-keyboard-response",
		"trial_index": 322,
		"time_elapsed": 519027,
		"internal_node_id": "0.0-3.0-1.261"
	},
	{
		"rt": 789,
		"stimulus": "../audio/35-4-masc.mp3",
		"response": " ",
		"word": "a",
		"trial_type": "audio-keyboard-response",
		"trial_index": 323,
		"time_elapsed": 520139,
		"internal_node_id": "0.0-3.0-1.262"
	},
	{
		"rt": 1280,
		"stimulus": "../audio/35-5-masc.mp3",
		"response": " ",
		"word": "preparação",
		"trial_type": "audio-keyboard-response",
		"trial_index": 324,
		"time_elapsed": 521756,
		"internal_node_id": "0.0-3.0-1.263"
	},
	{
		"rt": 771,
		"stimulus": "../audio/35-6-masc.mp3",
		"response": " ",
		"word": "do",
		"trial_type": "audio-keyboard-response",
		"trial_index": 325,
		"time_elapsed": 522870,
		"internal_node_id": "0.0-3.0-1.264"
	},
	{
		"rt": 1000,
		"stimulus": "../audio/35-7-masc.mp3",
		"response": " ",
		"word": "bolo",
		"trial_type": "audio-keyboard-response",
		"trial_index": 326,
		"time_elapsed": 524207,
		"internal_node_id": "0.0-3.0-1.265"
	},
	{
		"rt": 861,
		"stimulus": "../audio/35-8-masc.mp3",
		"response": " ",
		"word": "é",
		"trial_type": "audio-keyboard-response",
		"trial_index": 327,
		"time_elapsed": 525393,
		"internal_node_id": "0.0-3.0-1.266"
	},
	{
		"rt": 1080,
		"stimulus": "../audio/35-9-masc.mp3",
		"response": " ",
		"word": "leve.",
		"trial_type": "audio-keyboard-response",
		"trial_index": 328,
		"time_elapsed": 526799,
		"internal_node_id": "0.0-3.0-1.267"
	},
	{
		"rt": 8494,
		"stimulus": "<span style=\"font-size:25px; font-family: monospace\">A receita do bolo é pesada?</span>",
		"response": "n",
		"question": "A receita do bolo é pesada?",
		"answer": "null",
		"trial": "exp-sent",
		"trial_type": "html-keyboard-response",
		"trial_index": 329,
		"time_elapsed": 535545,
		"internal_node_id": "0.0-3.0-2.267-0.267",
		"accuracy": false
	},
	{
		"rt": null,
		"stimulus": "<span style= \"font-size:30px; font-family: monospace\">+</span>",
		"response": null,
		"trial_part": "fixation",
		"trial_type": "html-keyboard-response",
		"trial_index": 330,
		"time_elapsed": 537059,
		"internal_node_id": "0.0-3.0-0.268-0.268"
	},
	{
		"rt": 1451,
		"stimulus": "../audio/04-1-masc.mp3",
		"response": " ",
		"word": "Duzentos",
		"trial_type": "audio-keyboard-response",
		"trial_index": 331,
		"time_elapsed": 538875,
		"internal_node_id": "0.0-3.0-1.268"
	},
	{
		"rt": 949,
		"stimulus": "../audio/04-2-masc.mp3",
		"response": " ",
		"word": "carros",
		"trial_type": "audio-keyboard-response",
		"trial_index": 332,
		"time_elapsed": 540145,
		"internal_node_id": "0.0-3.0-1.269"
	},
	{
		"rt": 1061,
		"stimulus": "../audio/04-3-masc.mp3",
		"response": " ",
		"word": "passaram",
		"trial_type": "audio-keyboard-response",
		"trial_index": 333,
		"time_elapsed": 541553,
		"internal_node_id": "0.0-3.0-1.270"
	},
	{
		"rt": 899,
		"stimulus": "../audio/04-4-masc.mp3",
		"response": " ",
		"word": "pela",
		"trial_type": "audio-keyboard-response",
		"trial_index": 334,
		"time_elapsed": 542777,
		"internal_node_id": "0.0-3.0-1.271"
	},
	{
		"rt": 920,
		"stimulus": "../audio/04-5-masc.mp3",
		"response": " ",
		"word": "ponte",
		"trial_type": "audio-keyboard-response",
		"trial_index": 335,
		"time_elapsed": 544025,
		"internal_node_id": "0.0-3.0-1.272"
	},
	{
		"rt": 952,
		"stimulus": "../audio/04-6-masc.mp3",
		"response": " ",
		"word": "hoje",
		"trial_type": "audio-keyboard-response",
		"trial_index": 336,
		"time_elapsed": 545314,
		"internal_node_id": "0.0-3.0-1.273"
	},
	{
		"rt": 731,
		"stimulus": "../audio/04-7-masc.mp3",
		"response": " ",
		"word": "de",
		"trial_type": "audio-keyboard-response",
		"trial_index": 337,
		"time_elapsed": 546373,
		"internal_node_id": "0.0-3.0-1.274"
	},
	{
		"rt": 1029,
		"stimulus": "../audio/04-8-masc.mp3",
		"response": " ",
		"word": "tarde.",
		"trial_type": "audio-keyboard-response",
		"trial_index": 338,
		"time_elapsed": 547726,
		"internal_node_id": "0.0-3.0-1.275"
	},
	{
		"rt": null,
		"stimulus": "<span style= \"font-size:30px; font-family: monospace\">+</span>",
		"response": null,
		"trial_part": "fixation",
		"trial_type": "html-keyboard-response",
		"trial_index": 339,
		"time_elapsed": 549002,
		"internal_node_id": "0.0-3.0-0.276-0.276"
	},
	{
		"rt": 659,
		"stimulus": "../audio/03-1-masc.mp3",
		"response": " ",
		"word": "O",
		"trial_type": "audio-keyboard-response",
		"trial_index": 340,
		"time_elapsed": 550006,
		"internal_node_id": "0.0-3.0-1.276"
	},
	{
		"rt": 891,
		"stimulus": "../audio/03-2-masc.mp3",
		"response": " ",
		"word": "coelho",
		"trial_type": "audio-keyboard-response",
		"trial_index": 341,
		"time_elapsed": 551220,
		"internal_node_id": "0.0-3.0-1.277"
	},
	{
		"rt": 771,
		"stimulus": "../audio/03-3-masc.mp3",
		"response": " ",
		"word": "foi",
		"trial_type": "audio-keyboard-response",
		"trial_index": 342,
		"time_elapsed": 552340,
		"internal_node_id": "0.0-3.0-1.278"
	},
	{
		"rt": 1141,
		"stimulus": "../audio/03-4-masc.mp3",
		"response": " ",
		"word": "bastante",
		"trial_type": "audio-keyboard-response",
		"trial_index": 343,
		"time_elapsed": 553794,
		"internal_node_id": "0.0-3.0-1.279"
	},
	{
		"rt": 1400,
		"stimulus": "../audio/03-5-masc.mp3",
		"response": " ",
		"word": "dócil",
		"trial_type": "audio-keyboard-response",
		"trial_index": 344,
		"time_elapsed": 555514,
		"internal_node_id": "0.0-3.0-1.280"
	},
	{
		"rt": 771,
		"stimulus": "../audio/03-6-masc.mp3",
		"response": " ",
		"word": "com",
		"trial_type": "audio-keyboard-response",
		"trial_index": 345,
		"time_elapsed": 556655,
		"internal_node_id": "0.0-3.0-1.281"
	},
	{
		"rt": 851,
		"stimulus": "../audio/03-7-masc.mp3",
		"response": " ",
		"word": "as",
		"trial_type": "audio-keyboard-response",
		"trial_index": 346,
		"time_elapsed": 557842,
		"internal_node_id": "0.0-3.0-1.282"
	},
	{
		"rt": 1349,
		"stimulus": "../audio/03-8-masc.mp3",
		"response": " ",
		"word": "crianças.",
		"trial_type": "audio-keyboard-response",
		"trial_index": 347,
		"time_elapsed": 559539,
		"internal_node_id": "0.0-3.0-1.283"
	},
	{
		"rt": null,
		"stimulus": "<span style= \"font-size:30px; font-family: monospace\">+</span>",
		"response": null,
		"trial_part": "fixation",
		"trial_type": "html-keyboard-response",
		"trial_index": 348,
		"time_elapsed": 560805,
		"internal_node_id": "0.0-3.0-0.284-0.284"
	},
	{
		"rt": 741,
		"stimulus": "../audio/01-1-masc.mp3",
		"response": " ",
		"word": "O",
		"trial_type": "audio-keyboard-response",
		"trial_index": 349,
		"time_elapsed": 561917,
		"internal_node_id": "0.0-3.0-1.284"
	},
	{
		"rt": 1072,
		"stimulus": "../audio/01-2-masc.mp3",
		"response": " ",
		"word": "menino",
		"trial_type": "audio-keyboard-response",
		"trial_index": 350,
		"time_elapsed": 563316,
		"internal_node_id": "0.0-3.0-1.285"
	},
	{
		"rt": 971,
		"stimulus": "../audio/01-3-masc.mp3",
		"response": " ",
		"word": "derrubou",
		"trial_type": "audio-keyboard-response",
		"trial_index": 351,
		"time_elapsed": 564630,
		"internal_node_id": "0.0-3.0-1.286"
	},
	{
		"rt": 739,
		"stimulus": "../audio/01-4-masc.mp3",
		"response": " ",
		"word": "a",
		"trial_type": "audio-keyboard-response",
		"trial_index": 352,
		"time_elapsed": 565701,
		"internal_node_id": "0.0-3.0-1.287"
	},
	{
		"rt": 1552,
		"stimulus": "../audio/01-5-masc.mp3",
		"response": " ",
		"word": "guitarra",
		"trial_type": "audio-keyboard-response",
		"trial_index": 353,
		"time_elapsed": 567597,
		"internal_node_id": "0.0-3.0-1.288"
	},
	{
		"rt": 1120,
		"stimulus": "../audio/01-6-masc.mp3",
		"response": " ",
		"word": "no",
		"trial_type": "audio-keyboard-response",
		"trial_index": 354,
		"time_elapsed": 569047,
		"internal_node_id": "0.0-3.0-1.289"
	},
	{
		"rt": 1091,
		"stimulus": "../audio/01-7-masc.mp3",
		"response": " ",
		"word": "chão.",
		"trial_type": "audio-keyboard-response",
		"trial_index": 355,
		"time_elapsed": 570470,
		"internal_node_id": "0.0-3.0-1.290"
	},
	{
		"rt": null,
		"stimulus": "<span style= \"font-size:30px; font-family: monospace\">+</span>",
		"response": null,
		"trial_part": "fixation",
		"trial_type": "html-keyboard-response",
		"trial_index": 356,
		"time_elapsed": 571742,
		"internal_node_id": "0.0-3.0-0.291-0.291"
	},
	{
		"rt": 709,
		"stimulus": "../audio/02-2-fem.mp3",
		"response": " ",
		"word": "Havia",
		"trial_type": "audio-keyboard-response",
		"trial_index": 357,
		"time_elapsed": 572790,
		"internal_node_id": "0.0-3.0-1.291"
	},
	{
		"rt": 859,
		"stimulus": "../audio/02-2-fem.mp3",
		"response": " ",
		"word": "um",
		"trial_type": "audio-keyboard-response",
		"trial_index": 358,
		"time_elapsed": 573893,
		"internal_node_id": "0.0-3.0-1.292"
	},
	{
		"rt": 891,
		"stimulus": "../audio/02-3-fem.mp3",
		"response": " ",
		"word": "cheiro",
		"trial_type": "audio-keyboard-response",
		"trial_index": 359,
		"time_elapsed": 575138,
		"internal_node_id": "0.0-3.0-1.293"
	},
	{
		"rt": 731,
		"stimulus": "../audio/02-4-fem.mp3",
		"response": " ",
		"word": "de",
		"trial_type": "audio-keyboard-response",
		"trial_index": 360,
		"time_elapsed": 576189,
		"internal_node_id": "0.0-3.0-1.294"
	},
	{
		"rt": 1421,
		"stimulus": "../audio/02-5-fem.mp3",
		"response": " ",
		"word": "gasolina",
		"trial_type": "audio-keyboard-response",
		"trial_index": 361,
		"time_elapsed": 577953,
		"internal_node_id": "0.0-3.0-1.295"
	},
	{
		"rt": 779,
		"stimulus": "../audio/02-6-fem.mp3",
		"response": " ",
		"word": "na",
		"trial_type": "audio-keyboard-response",
		"trial_index": 362,
		"time_elapsed": 579055,
		"internal_node_id": "0.0-3.0-1.296"
	},
	{
		"rt": 1240,
		"stimulus": "../audio/02-7-fem.mp3",
		"response": " ",
		"word": "garagem.",
		"trial_type": "audio-keyboard-response",
		"trial_index": 363,
		"time_elapsed": 580650,
		"internal_node_id": "0.0-3.0-1.297"
	},
	{
		"rt": null,
		"stimulus": "<span style= \"font-size:30px; font-family: monospace\">+</span>",
		"response": null,
		"trial_part": "fixation",
		"trial_type": "html-keyboard-response",
		"trial_index": 364,
		"time_elapsed": 581918,
		"internal_node_id": "0.0-3.0-0.298-0.298"
	},
	{
		"rt": 749,
		"stimulus": "../audio/05-1-masc.mp3",
		"response": " ",
		"word": "A",
		"trial_type": "audio-keyboard-response",
		"trial_index": 365,
		"time_elapsed": 583022,
		"internal_node_id": "0.0-3.0-1.298"
	},
	{
		"rt": 941,
		"stimulus": "../audio/05-2-masc.mp3",
		"response": " ",
		"word": "vendedora",
		"trial_type": "audio-keyboard-response",
		"trial_index": 366,
		"time_elapsed": 584305,
		"internal_node_id": "0.0-3.0-1.299"
	},
	{
		"rt": 1000,
		"stimulus": "../audio/05-3-masc.mp3",
		"response": " ",
		"word": "ajudou",
		"trial_type": "audio-keyboard-response",
		"trial_index": 367,
		"time_elapsed": 585659,
		"internal_node_id": "0.0-3.0-1.300"
	},
	{
		"rt": 731,
		"stimulus": "../audio/05-4-masc.mp3",
		"response": " ",
		"word": "um",
		"trial_type": "audio-keyboard-response",
		"trial_index": 368,
		"time_elapsed": 586707,
		"internal_node_id": "0.0-3.0-1.301"
	},
	{
		"rt": 1101,
		"stimulus": "../audio/05-5-masc.mp3",
		"response": " ",
		"word": "turista",
		"trial_type": "audio-keyboard-response",
		"trial_index": 369,
		"time_elapsed": 588188,
		"internal_node_id": "0.0-3.0-1.302"
	},
	{
		"rt": 792,
		"stimulus": "../audio/05-6-masc.mp3",
		"response": " ",
		"word": "na",
		"trial_type": "audio-keyboard-response",
		"trial_index": 370,
		"time_elapsed": 589318,
		"internal_node_id": "0.0-3.0-1.303"
	},
	{
		"rt": 1200,
		"stimulus": "../audio/05-7-masc.mp3",
		"response": " ",
		"word": "loja.",
		"trial_type": "audio-keyboard-response",
		"trial_index": 371,
		"time_elapsed": 590884,
		"internal_node_id": "0.0-3.0-1.304"
	},
	{
		"rt": 6944,
		"stimulus": "<span style=\"font-size:25px; font-family: monospace\">A vendedora ajudou um turista?</span>",
		"response": "s",
		"question": "A vendedora ajudou um turista?",
		"answer": "null",
		"trial": "exp-sent",
		"trial_type": "html-keyboard-response",
		"trial_index": 372,
		"time_elapsed": 598082,
		"internal_node_id": "0.0-3.0-2.304-0.304",
		"accuracy": false
	},
	{
		"rt": null,
		"stimulus": "<span style= \"font-size:30px; font-family: monospace\">+</span>",
		"response": null,
		"trial_part": "fixation",
		"trial_type": "html-keyboard-response",
		"trial_index": 373,
		"time_elapsed": 599599,
		"internal_node_id": "0.0-3.0-0.305-0.305"
	},
	{
		"rt": 931,
		"stimulus": "../audio/22-1-masc.mp3",
		"response": " ",
		"word": "Eu",
		"trial_type": "audio-keyboard-response",
		"trial_index": 374,
		"time_elapsed": 600866,
		"internal_node_id": "0.0-3.0-1.305"
	},
	{
		"rt": 1061,
		"stimulus": "../audio/22-2-masc.mp3",
		"response": " ",
		"word": "detesto",
		"trial_type": "audio-keyboard-response",
		"trial_index": 375,
		"time_elapsed": 602270,
		"internal_node_id": "0.0-3.0-1.306"
	},
	{
		"rt": 1131,
		"stimulus": "../audio/22-3-masc.mp3",
		"response": " ",
		"word": "fumaça",
		"trial_type": "audio-keyboard-response",
		"trial_index": 376,
		"time_elapsed": 603752,
		"internal_node_id": "0.0-3.0-1.307"
	},
	{
		"rt": 651,
		"stimulus": "../audio/22-4-masc.mp3",
		"response": " ",
		"word": "de",
		"trial_type": "audio-keyboard-response",
		"trial_index": 377,
		"time_elapsed": 604742,
		"internal_node_id": "0.0-3.0-1.308"
	},
	{
		"rt": 1120,
		"stimulus": "../audio/22-5-masc.mp3",
		"response": " ",
		"word": "cachimbo",
		"trial_type": "audio-keyboard-response",
		"trial_index": 378,
		"time_elapsed": 606201,
		"internal_node_id": "0.0-3.0-1.309"
	},
	{
		"rt": 672,
		"stimulus": "../audio/22-6-masc.mp3",
		"response": " ",
		"word": "e",
		"trial_type": "audio-keyboard-response",
		"trial_index": 379,
		"time_elapsed": 607200,
		"internal_node_id": "0.0-3.0-1.310"
	},
	{
		"rt": 701,
		"stimulus": "../audio/22-7-masc.mp3",
		"response": " ",
		"word": "de",
		"trial_type": "audio-keyboard-response",
		"trial_index": 380,
		"time_elapsed": 608233,
		"internal_node_id": "0.0-3.0-1.311"
	},
	{
		"rt": 1261,
		"stimulus": "../audio/22-8-masc.mp3",
		"response": " ",
		"word": "cigarro.",
		"trial_type": "audio-keyboard-response",
		"trial_index": 381,
		"time_elapsed": 609833,
		"internal_node_id": "0.0-3.0-1.312"
	},
	{
		"rt": null,
		"stimulus": "<span style= \"font-size:30px; font-family: monospace\">+</span>",
		"response": null,
		"trial_part": "fixation",
		"trial_type": "html-keyboard-response",
		"trial_index": 382,
		"time_elapsed": 611104,
		"internal_node_id": "0.0-3.0-0.313-0.313"
	},
	{
		"rt": 1488,
		"stimulus": "../audio/21-1-fem.mp3",
		"response": " ",
		"word": "Precisamos",
		"trial_type": "audio-keyboard-response",
		"trial_index": 383,
		"time_elapsed": 612967,
		"internal_node_id": "0.0-3.0-1.313"
	},
	{
		"rt": 691,
		"stimulus": "../audio/21-2-fem.mp3",
		"response": " ",
		"word": "de",
		"trial_type": "audio-keyboard-response",
		"trial_index": 384,
		"time_elapsed": 613983,
		"internal_node_id": "0.0-3.0-1.314"
	},
	{
		"rt": 1541,
		"stimulus": "../audio/21-3-fem.mp3",
		"response": " ",
		"word": "paciência",
		"trial_type": "audio-keyboard-response",
		"trial_index": 385,
		"time_elapsed": 615871,
		"internal_node_id": "0.0-3.0-1.315"
	},
	{
		"rt": 728,
		"stimulus": "../audio/21-4-fem.mp3",
		"response": " ",
		"word": "e",
		"trial_type": "audio-keyboard-response",
		"trial_index": 386,
		"time_elapsed": 616924,
		"internal_node_id": "0.0-3.0-1.316"
	},
	{
		"rt": 1339,
		"stimulus": "../audio/21-5-fem.mp3",
		"response": " ",
		"word": "bondade",
		"trial_type": "audio-keyboard-response",
		"trial_index": 387,
		"time_elapsed": 618605,
		"internal_node_id": "0.0-3.0-1.317"
	},
	{
		"rt": 1051,
		"stimulus": "../audio/21-6-fem.mp3",
		"response": " ",
		"word": "para",
		"trial_type": "audio-keyboard-response",
		"trial_index": 388,
		"time_elapsed": 619978,
		"internal_node_id": "0.0-3.0-1.318"
	},
	{
		"rt": 771,
		"stimulus": "../audio/21-7-fem.mp3",
		"response": " ",
		"word": "um",
		"trial_type": "audio-keyboard-response",
		"trial_index": 389,
		"time_elapsed": 621077,
		"internal_node_id": "0.0-3.0-1.319"
	},
	{
		"rt": 1131,
		"stimulus": "../audio/21-8-fem.mp3",
		"response": " ",
		"word": "mundo",
		"trial_type": "audio-keyboard-response",
		"trial_index": 390,
		"time_elapsed": 622540,
		"internal_node_id": "0.0-3.0-1.320"
	},
	{
		"rt": 1280,
		"stimulus": "../audio/21-9-fem.mp3",
		"response": " ",
		"word": "melhor.",
		"trial_type": "audio-keyboard-response",
		"trial_index": 391,
		"time_elapsed": 624161,
		"internal_node_id": "0.0-3.0-1.321"
	},
	{
		"rt": null,
		"stimulus": "<span style= \"font-size:30px; font-family: monospace\">+</span>",
		"response": null,
		"trial_part": "fixation",
		"trial_type": "html-keyboard-response",
		"trial_index": 392,
		"time_elapsed": 625425,
		"internal_node_id": "0.0-3.0-0.322-0.322"
	},
	{
		"rt": 1219,
		"stimulus": "../audio/23-1-masc.mp3",
		"response": " ",
		"word": "Português",
		"trial_type": "audio-keyboard-response",
		"trial_index": 393,
		"time_elapsed": 627004,
		"internal_node_id": "0.0-3.0-1.322"
	},
	{
		"rt": 672,
		"stimulus": "../audio/23-2-masc.mp3",
		"response": " ",
		"word": "é",
		"trial_type": "audio-keyboard-response",
		"trial_index": 394,
		"time_elapsed": 627996,
		"internal_node_id": "0.0-3.0-1.323"
	},
	{
		"rt": 829,
		"stimulus": "../audio/23-3-masc.mp3",
		"response": " ",
		"word": "um",
		"trial_type": "audio-keyboard-response",
		"trial_index": 395,
		"time_elapsed": 629148,
		"internal_node_id": "0.0-3.0-1.324"
	},
	{
		"rt": 1101,
		"stimulus": "../audio/23-4-masc.mp3",
		"response": " ",
		"word": "assunto",
		"trial_type": "audio-keyboard-response",
		"trial_index": 396,
		"time_elapsed": 630584,
		"internal_node_id": "0.0-3.0-1.325"
	},
	{
		"rt": 1459,
		"stimulus": "../audio/23-5-masc.mp3",
		"response": " ",
		"word": "elementar",
		"trial_type": "audio-keyboard-response",
		"trial_index": 397,
		"time_elapsed": 632375,
		"internal_node_id": "0.0-3.0-1.326"
	},
	{
		"rt": 832,
		"stimulus": "../audio/23-6-masc.mp3",
		"response": " ",
		"word": "para",
		"trial_type": "audio-keyboard-response",
		"trial_index": 398,
		"time_elapsed": 633511,
		"internal_node_id": "0.0-3.0-1.327"
	},
	{
		"rt": 811,
		"stimulus": "../audio/23-7-masc.mp3",
		"response": " ",
		"word": "os",
		"trial_type": "audio-keyboard-response",
		"trial_index": 399,
		"time_elapsed": 634659,
		"internal_node_id": "0.0-3.0-1.328"
	},
	{
		"rt": 1480,
		"stimulus": "../audio/23-8-masc.mp3",
		"response": " ",
		"word": "alunos.",
		"trial_type": "audio-keyboard-response",
		"trial_index": 400,
		"time_elapsed": 636442,
		"internal_node_id": "0.0-3.0-1.329"
	},
	{
		"rt": null,
		"stimulus": "<span style= \"font-size:30px; font-family: monospace\">+</span>",
		"response": null,
		"trial_part": "fixation",
		"trial_type": "html-keyboard-response",
		"trial_index": 401,
		"time_elapsed": 637706,
		"internal_node_id": "0.0-3.0-0.330-0.330"
	},
	{
		"rt": 720,
		"stimulus": "../audio/24-1-fem.mp3",
		"response": " ",
		"word": "As",
		"trial_type": "audio-keyboard-response",
		"trial_index": 402,
		"time_elapsed": 638765,
		"internal_node_id": "0.0-3.0-1.330"
	},
	{
		"rt": 1189,
		"stimulus": "../audio/24-2-fem.mp3",
		"response": " ",
		"word": "crianças",
		"trial_type": "audio-keyboard-response",
		"trial_index": 403,
		"time_elapsed": 640297,
		"internal_node_id": "0.0-3.0-1.331"
	},
	{
		"rt": 840,
		"stimulus": "../audio/24-3-fem.mp3",
		"response": " ",
		"word": "vão",
		"trial_type": "audio-keyboard-response",
		"trial_index": 404,
		"time_elapsed": 641461,
		"internal_node_id": "0.0-3.0-1.332"
	},
	{
		"rt": 779,
		"stimulus": "../audio/24-4-fem.mp3",
		"response": " ",
		"word": "ao",
		"trial_type": "audio-keyboard-response",
		"trial_index": 405,
		"time_elapsed": 642563,
		"internal_node_id": "0.0-3.0-1.333"
	},
	{
		"rt": 1280,
		"stimulus": "../audio/24-5-fem.mp3",
		"response": " ",
		"word": "cinema",
		"trial_type": "audio-keyboard-response",
		"trial_index": 406,
		"time_elapsed": 644205,
		"internal_node_id": "0.0-3.0-1.334"
	},
	{
		"rt": 931,
		"stimulus": "../audio/24-6-fem.mp3",
		"response": " ",
		"word": "mais",
		"trial_type": "audio-keyboard-response",
		"trial_index": 407,
		"time_elapsed": 645479,
		"internal_node_id": "0.0-3.0-1.335"
	},
	{
		"rt": 1080,
		"stimulus": "../audio/24-7-fem.mp3",
		"response": " ",
		"word": "tarde.",
		"trial_type": "audio-keyboard-response",
		"trial_index": 408,
		"time_elapsed": 646906,
		"internal_node_id": "0.0-3.0-1.336"
	},
	{
		"rt": null,
		"stimulus": "<span style= \"font-size:30px; font-family: monospace\">+</span>",
		"response": null,
		"trial_part": "fixation",
		"trial_type": "html-keyboard-response",
		"trial_index": 409,
		"time_elapsed": 648174,
		"internal_node_id": "0.0-3.0-0.337-0.337"
	},
	{
		"rt": 771,
		"stimulus": "../audio/25-1-fem.mp3",
		"response": " ",
		"word": "Ela",
		"trial_type": "audio-keyboard-response",
		"trial_index": 410,
		"time_elapsed": 649298,
		"internal_node_id": "0.0-3.0-1.337"
	},
	{
		"rt": 749,
		"stimulus": "../audio/25-2-fem.mp3",
		"response": " ",
		"word": "faz",
		"trial_type": "audio-keyboard-response",
		"trial_index": 411,
		"time_elapsed": 650378,
		"internal_node_id": "0.0-3.0-1.338"
	},
	{
		"rt": 1051,
		"stimulus": "../audio/25-3-fem.mp3",
		"response": " ",
		"word": "tanto",
		"trial_type": "audio-keyboard-response",
		"trial_index": 412,
		"time_elapsed": 651732,
		"internal_node_id": "0.0-3.0-1.339"
	},
	{
		"rt": 1099,
		"stimulus": "../audio/25-4-fem.mp3",
		"response": " ",
		"word": "cabelo",
		"trial_type": "audio-keyboard-response",
		"trial_index": 413,
		"time_elapsed": 653142,
		"internal_node_id": "0.0-3.0-1.340"
	},
	{
		"rt": 1211,
		"stimulus": "../audio/25-5-fem.mp3",
		"response": " ",
		"word": "liso",
		"trial_type": "audio-keyboard-response",
		"trial_index": 414,
		"time_elapsed": 654653,
		"internal_node_id": "0.0-3.0-1.341"
	},
	{
		"rt": 1011,
		"stimulus": "../audio/25-6-fem.mp3",
		"response": " ",
		"word": "quanto",
		"trial_type": "audio-keyboard-response",
		"trial_index": 415,
		"time_elapsed": 655994,
		"internal_node_id": "0.0-3.0-1.342"
	},
	{
		"rt": 1501,
		"stimulus": "../audio/25-7-fem.mp3",
		"response": " ",
		"word": "cacheado.",
		"trial_type": "audio-keyboard-response",
		"trial_index": 416,
		"time_elapsed": 657831,
		"internal_node_id": "0.0-3.0-1.343"
	},
	{
		"rt": 6785,
		"stimulus": "<span style=\"font-size:25px; font-family: monospace\">Ela só faz cabelo cacheado?</span>",
		"response": "n",
		"question": "Ela só faz cabelo cacheado?",
		"answer": "null",
		"trial": "exp-sent",
		"trial_type": "html-keyboard-response",
		"trial_index": 417,
		"time_elapsed": 664876,
		"internal_node_id": "0.0-3.0-2.343-0.343",
		"accuracy": false
	},
	{
		"rt": null,
		"stimulus": "<span style= \"font-size:30px; font-family: monospace\">+</span>",
		"response": null,
		"trial_part": "fixation",
		"trial_type": "html-keyboard-response",
		"trial_index": 418,
		"time_elapsed": 666394,
		"internal_node_id": "0.0-3.0-0.344-0.344"
	},
	{
		"rt": 861,
		"stimulus": "../audio/79-1-fem.mp3",
		"response": " ",
		"word": "A",
		"trial_type": "audio-keyboard-response",
		"trial_index": 419,
		"time_elapsed": 667597,
		"internal_node_id": "0.0-3.0-1.344"
	},
	{
		"rt": 1320,
		"stimulus": "../audio/79-2-fem.mp3",
		"response": " ",
		"word": "médica",
		"trial_type": "audio-keyboard-response",
		"trial_index": 420,
		"time_elapsed": 669260,
		"internal_node_id": "0.0-3.0-1.345"
	},
	{
		"rt": 1339,
		"stimulus": "../audio/79-3-fem.mp3",
		"response": " ",
		"word": "verificou",
		"trial_type": "audio-keyboard-response",
		"trial_index": 421,
		"time_elapsed": 670932,
