"view_history","rt","trial_type","trial_index","time_elapsed","internal_node_id","stimulus","response","trial_part","trial","word","question","answer","accuracy"
"[{""page_index"":0,""viewing_time"":52050},{""page_index"":1,""viewing_time"":29475}]","81525","instructions","0","81529","0.0-0.0","","","","","","","",""
"","null","html-keyboard-response","1","82651","0.0-1.0-0.0-0.0","<span style= ""font-size:30px; font-family: monospace"">+</span>","null","fixation","","","","",""
"","6275","html-keyboard-response","2","89179","0.0-1.0-1.0","<span style=""font-size:30px; font-family: monospace"">O</span>"," ","","prac-sent","O","","",""
"","3103","html-keyboard-response","3","92540","0.0-1.0-1.1","<span style=""font-size:30px; font-family: monospace"">dia</span>"," ","","prac-sent","dia","","",""
"","2084","html-keyboard-response","4","94878","0.0-1.0-1.2","<span style=""font-size:30px; font-family: monospace"">estará</span>"," ","","prac-sent","estará","","",""
"","1694","html-keyboard-response","5","96823","0.0-1.0-1.3","<span style=""font-size:30px; font-family: monospace"">cheio</span>"," ","","prac-sent","cheio","","",""
"","1443","html-keyboard-response","6","98533","0.0-1.0-1.4","<span style=""font-size:30px; font-family: monospace"">de</span>"," ","","prac-sent","de","","",""
"","2087","html-keyboard-response","7","100881","0.0-1.0-1.5","<span style=""font-size:30px; font-family: monospace"">nuvens</span>"," ","","prac-sent","nuvens","","",""
"","2294","html-keyboard-response","8","103434","0.0-1.0-1.6","<span style=""font-size:30px; font-family: monospace"">hoje.</span>"," ","","prac-sent","hoje.","","",""
"","null","html-keyboard-response","9","104704","0.0-1.0-0.7-0.7","<span style= ""font-size:30px; font-family: monospace"">+</span>","null","fixation","","","","",""
"","4775","html-keyboard-response","10","109734","0.0-1.0-1.7","<span style=""font-size:30px; font-family: monospace"">A</span>"," ","","prac-sent","A","","",""
"","2145","html-keyboard-response","11","112134","0.0-1.0-1.8","<span style=""font-size:30px; font-family: monospace"">caneca</span>"," ","","prac-sent","caneca","","",""
"","1844","html-keyboard-response","12","114238","0.0-1.0-1.9","<span style=""font-size:30px; font-family: monospace"">colorida</span>"," ","","prac-sent","colorida","","",""
"","1559","html-keyboard-response","13","116062","0.0-1.0-1.10","<span style=""font-size:30px; font-family: monospace"">caiu</span>"," ","","prac-sent","caiu","","",""
"","1089","html-keyboard-response","14","117406","0.0-1.0-1.11","<span style=""font-size:30px; font-family: monospace"">da</span>"," ","","prac-sent","da","","",""
"","1275","html-keyboard-response","15","118939","0.0-1.0-1.12","<span style=""font-size:30px; font-family: monospace"">mesa</span>"," ","","prac-sent","mesa","","",""
"","1104","html-keyboard-response","16","120305","0.0-1.0-1.13","<span style=""font-size:30px; font-family: monospace"">de</span>"," ","","prac-sent","de","","",""
"","1434","html-keyboard-response","17","121997","0.0-1.0-1.14","<span style=""font-size:30px; font-family: monospace"">jantar.</span>"," ","","prac-comp","jantar.","","",""
"","13859","html-keyboard-response","18","136109","0.0-1.0-2.14-0.14","<span style=""font-size:30px; font-family: monospace"">A caneca permaneceu na mesa?</span>","n","","prac-comp","","A caneca permaneceu na mesa?","não","false"
"[{""page_index"":0,""viewing_time"":19625}]","19625","instructions","19","156235","0.0-2.0","","","","","","","",""
"","null","html-keyboard-response","20","157353","0.0-3.0-0.0-0.0","<span style= ""font-size:30px; font-family: monospace"">+</span>","null","fixation","","","","",""
"","2529","html-keyboard-response","21","160145","0.0-3.0-1.0","<span style=""font-size:30px; font-family: monospace"">Barulho</span>"," ","","exp-sent","Barulho","","",""
"","1235","html-keyboard-response","22","161634","0.0-3.0-1.1","<span style=""font-size:30px; font-family: monospace"">de</span>"," ","","exp-sent","de","","",""
"","1314","html-keyboard-response","23","163211","0.0-3.0-1.2","<span style=""font-size:30px; font-family: monospace"">carros</span>"," ","","exp-sent","carros","","",""
"","1023","html-keyboard-response","24","164487","0.0-3.0-1.3","<span style=""font-size:30px; font-family: monospace"">é</span>"," ","","exp-sent","é","","",""
"","1745","html-keyboard-response","25","166495","0.0-3.0-1.4","<span style=""font-size:30px; font-family: monospace"">irritante</span>"," ","","exp-sent","irritante","","",""
"","996","html-keyboard-response","26","167744","0.0-3.0-1.5","<span style=""font-size:30px; font-family: monospace"">para</span>"," ","","exp-sent","para","","",""
"","984","html-keyboard-response","27","168980","0.0-3.0-1.6","<span style=""font-size:30px; font-family: monospace"">a</span>"," ","","exp-sent","a","","",""
"","2681","html-keyboard-response","28","171918","0.0-3.0-1.7","<span style=""font-size:30px; font-family: monospace"">moça.</span>"," ","","exp-sent","moça.","","",""
"","null","html-keyboard-response","29","173188","0.0-3.0-0.8-0.8","<span style= ""font-size:30px; font-family: monospace"">+</span>","null","fixation","","","","",""
"","3085","html-keyboard-response","30","176528","0.0-3.0-1.8","<span style=""font-size:30px; font-family: monospace"">A</span>"," ","","exp-sent","A","","",""
"","1281","html-keyboard-response","31","178072","0.0-3.0-1.9","<span style=""font-size:30px; font-family: monospace"">loja</span>"," ","","exp-sent","loja","","",""
"","1081","html-keyboard-response","32","179420","0.0-3.0-1.10","<span style=""font-size:30px; font-family: monospace"">também</span>"," ","","exp-sent","também","","",""
"","1164","html-keyboard-response","33","180837","0.0-3.0-1.11","<span style=""font-size:30px; font-family: monospace"">vende</span>"," ","","exp-sent","vende","","",""
"","1662","html-keyboard-response","34","182751","0.0-3.0-1.12","<span style=""font-size:30px; font-family: monospace"">taça</span>"," ","","exp-sent","taça","","",""
"","886","html-keyboard-response","35","183891","0.0-3.0-1.13","<span style=""font-size:30px; font-family: monospace"">de</span>"," ","","exp-sent","de","","",""
"","1329","html-keyboard-response","36","185483","0.0-3.0-1.14","<span style=""font-size:30px; font-family: monospace"">vinho</span>"," ","","exp-sent","vinho","","",""
"","988","html-keyboard-response","37","186728","0.0-3.0-1.15","<span style=""font-size:30px; font-family: monospace"">e</span>"," ","","exp-sent","e","","",""
"","7980","html-keyboard-response","38","194958","0.0-3.0-1.16","<span style=""font-size:30px; font-family: monospace"">espumante.</span>"," ","","exp-sent","espumante.","","",""
"","null","html-keyboard-response","39","196228","0.0-3.0-0.17-0.17","<span style= ""font-size:30px; font-family: monospace"">+</span>","null","fixation","","","","",""
"","1557","html-keyboard-response","40","198039","0.0-3.0-1.17","<span style=""font-size:30px; font-family: monospace"">A</span>"," ","","exp-sent","A","","",""
"","1458","html-keyboard-response","41","199756","0.0-3.0-1.18","<span style=""font-size:30px; font-family: monospace"">bruxa</span>"," ","","exp-sent","bruxa","","",""
"","1169","html-keyboard-response","42","201187","0.0-3.0-1.19","<span style=""font-size:30px; font-family: monospace"">tinha</span>"," ","","exp-sent","tinha","","",""
"","1062","html-keyboard-response","43","202512","0.0-3.0-1.20","<span style=""font-size:30px; font-family: monospace"">uma</span>"," ","","exp-sent","uma","","",""
"","1236","html-keyboard-response","44","204015","0.0-3.0-1.21","<span style=""font-size:30px; font-family: monospace"">vassoura</span>"," ","","exp-sent","vassoura","","",""
"","884","html-keyboard-response","45","205162","0.0-3.0-1.22","<span style=""font-size:30px; font-family: monospace"">e</span>"," ","","exp-sent","e","","",""
"","972","html-keyboard-response","46","206398","0.0-3.0-1.23","<span style=""font-size:30px; font-family: monospace"">um</span>"," ","","exp-sent","um","","",""
"","2434","html-keyboard-response","47","209087","0.0-3.0-1.24","<span style=""font-size:30px; font-family: monospace"">gato.</span>"," ","","exp-sent","gato.","","",""
"","null","html-keyboard-response","48","210354","0.0-3.0-0.25-0.25","<span style= ""font-size:30px; font-family: monospace"">+</span>","null","fixation","","","","",""
"","84","html-keyboard-response","49","210699","0.0-3.0-1.25","<span style=""font-size:30px; font-family: monospace"">Eu</span>"," ","","exp-sent","Eu","","",""
"","986","html-keyboard-response","50","211949","0.0-3.0-1.26","<span style=""font-size:30px; font-family: monospace"">me</span>"," ","","exp-sent","me","","",""
"","1021","html-keyboard-response","51","213223","0.0-3.0-1.27","<span style=""font-size:30px; font-family: monospace"">divirto</span>"," ","","exp-sent","divirto","","",""
"","724","html-keyboard-response","52","214199","0.0-3.0-1.28","<span style=""font-size:30px; font-family: monospace"">em</span>"," ","","exp-sent","em","","",""
"","934","html-keyboard-response","53","215384","0.0-3.0-1.29","<span style=""font-size:30px; font-family: monospace"">festas</span>"," ","","exp-sent","festas","","",""
"","707","html-keyboard-response","54","216354","0.0-3.0-1.30","<span style=""font-size:30px; font-family: monospace"">de</span>"," ","","exp-sent","de","","",""
"","971","html-keyboard-response","55","217582","0.0-3.0-1.31","<span style=""font-size:30px; font-family: monospace"">criança.</span>"," ","","exp-sent","criança.","","",""
"","null","html-keyboard-response","56","218854","0.0-3.0-0.32-0.32","<span style= ""font-size:30px; font-family: monospace"">+</span>","null","fixation","","","","",""
"","789","html-keyboard-response","57","219901","0.0-3.0-1.32","<span style=""font-size:30px; font-family: monospace"">A</span>"," ","","exp-sent","A","","",""
"","922","html-keyboard-response","58","221082","0.0-3.0-1.33","<span style=""font-size:30px; font-family: monospace"">janela</span>"," ","","exp-sent","janela","","",""
"","923","html-keyboard-response","59","222261","0.0-3.0-1.34","<span style=""font-size:30px; font-family: monospace"">alta</span>"," ","","exp-sent","alta","","",""
"","791","html-keyboard-response","60","223307","0.0-3.0-1.35","<span style=""font-size:30px; font-family: monospace"">estava</span>"," ","","exp-sent","estava","","",""
"","986","html-keyboard-response","61","224557","0.0-3.0-1.36","<span style=""font-size:30px; font-family: monospace"">quebrada</span>"," ","","exp-sent","quebrada","","",""
"","879","html-keyboard-response","62","225698","0.0-3.0-1.37","<span style=""font-size:30px; font-family: monospace"">desde</span>"," ","","exp-sent","desde","","",""
"","1120","html-keyboard-response","63","227073","0.0-3.0-1.38","<span style=""font-size:30px; font-family: monospace"">ontem.</span>"," ","","comp","ontem.","","",""
"","9557","html-keyboard-response","64","236899","0.0-3.0-2.38-0.38","<span style=""font-size:30px; font-family: monospace"">A janela alta estava quebrada?</span>","s","","comp","","A janela alta estava quebrada?","sim","false"
"","null","html-keyboard-response","65","238419","0.0-3.0-0.39-0.39","<span style= ""font-size:30px; font-family: monospace"">+</span>","null","fixation","","","","",""
"","1846","html-keyboard-response","66","240529","0.0-3.0-1.39","<span style=""font-size:30px; font-family: monospace"">O</span>"," ","","exp-sent","O","","",""
"","1001","html-keyboard-response","67","241781","0.0-3.0-1.40","<span style=""font-size:30px; font-family: monospace"">texto</span>"," ","","exp-sent","texto","","",""
"","1205","html-keyboard-response","68","243253","0.0-3.0-1.41","<span style=""font-size:30px; font-family: monospace"">trazia</span>"," ","","exp-sent","trazia","","",""
"","753","html-keyboard-response","69","244266","0.0-3.0-1.42","<span style=""font-size:30px; font-family: monospace"">um</span>"," ","","exp-sent","um","","",""
"","1041","html-keyboard-response","70","245568","0.0-3.0-1.43","<span style=""font-size:30px; font-family: monospace"">argumento</span>"," ","","exp-sent","argumento","","",""
"","1240","html-keyboard-response","71","247068","0.0-3.0-1.44","<span style=""font-size:30px; font-family: monospace"">central</span>"," ","","exp-sent","central","","",""
"","864","html-keyboard-response","72","248189","0.0-3.0-1.45","<span style=""font-size:30px; font-family: monospace"">para</span>"," ","","exp-sent","para","","",""
"","836","html-keyboard-response","73","249278","0.0-3.0-1.46","<span style=""font-size:30px; font-family: monospace"">a</span>"," ","","exp-sent","a","","",""
"","1136","html-keyboard-response","74","250677","0.0-3.0-1.47","<span style=""font-size:30px; font-family: monospace"">conversa.</span>"," ","","exp-sent","conversa.","","",""
"","null","html-keyboard-response","75","251958","0.0-3.0-0.48-0.48","<span style= ""font-size:30px; font-family: monospace"">+</span>","null","fixation","","","","",""
"","879","html-keyboard-response","76","253104","0.0-3.0-1.48","<span style=""font-size:30px; font-family: monospace"">Ontem</span>"," ","","exp-sent","Ontem","","",""
"","662","html-keyboard-response","77","254018","0.0-3.0-1.49","<span style=""font-size:30px; font-family: monospace"">a</span>"," ","","exp-sent","a","","",""
"","904","html-keyboard-response","78","255180","0.0-3.0-1.50","<span style=""font-size:30px; font-family: monospace"">temperatura</span>"," ","","exp-sent","temperatura","","",""
"","729","html-keyboard-response","79","256171","0.0-3.0-1.51","<span style=""font-size:30px; font-family: monospace"">estava</span>"," ","","exp-sent","estava","","",""
"","1226","html-keyboard-response","80","257653","0.0-3.0-1.52","<span style=""font-size:30px; font-family: monospace"">amena</span>"," ","","exp-sent","amena","","",""
"","843","html-keyboard-response","81","258748","0.0-3.0-1.53","<span style=""font-size:30px; font-family: monospace"">durante</span>"," ","","exp-sent","durante","","",""
"","990","html-keyboard-response","82","260000","0.0-3.0-1.54","<span style=""font-size:30px; font-family: monospace"">o</span>"," ","","exp-sent","o","","",""
"","1459","html-keyboard-response","83","261713","0.0-3.0-1.55","<span style=""font-size:30px; font-family: monospace"">dia.</span>"," ","","exp-sent","dia.","","",""
"","null","html-keyboard-response","84","262979","0.0-3.0-0.56-0.56","<span style= ""font-size:30px; font-family: monospace"">+</span>","null","fixation","","","","",""
"","1232","html-keyboard-response","85","264471","0.0-3.0-1.56","<span style=""font-size:30px; font-family: monospace"">Havia</span>"," ","","exp-sent","Havia","","",""
"","1370","html-keyboard-response","86","266104","0.0-3.0-1.57","<span style=""font-size:30px; font-family: monospace"">um</span>"," ","","exp-sent","um","","",""
"","1922","html-keyboard-response","87","268292","0.0-3.0-1.58","<span style=""font-size:30px; font-family: monospace"">machucado</span>"," ","","exp-sent","machucado","","",""
"","768","html-keyboard-response","88","269316","0.0-3.0-1.59","<span style=""font-size:30px; font-family: monospace"">no</span>"," ","","exp-sent","no","","",""
"","1237","html-keyboard-response","89","270807","0.0-3.0-1.60","<span style=""font-size:30px; font-family: monospace"">dedo</span>"," ","","exp-sent","dedo","","",""
"","1099","html-keyboard-response","90","272162","0.0-3.0-1.61","<span style=""font-size:30px; font-family: monospace"">da</span>"," ","","exp-sent","da","","",""
"","761","html-keyboard-response","91","273189","0.0-3.0-1.62","<span style=""font-size:30px; font-family: monospace"">criança.</span>"," ","","exp-sent","criança.","","",""
"","null","html-keyboard-response","92","274463","0.0-3.0-0.63-0.63","<span style= ""font-size:30px; font-family: monospace"">+</span>","null","fixation","","","","",""
"","802","html-keyboard-response","93","275519","0.0-3.0-1.63","<span style=""font-size:30px; font-family: monospace"">A</span>"," ","","exp-sent","A","","",""
"","1511","html-keyboard-response","94","277292","0.0-3.0-1.64","<span style=""font-size:30px; font-family: monospace"">borboleta</span>"," ","","exp-sent","borboleta","","",""
"","1193","html-keyboard-response","95","278746","0.0-3.0-1.65","<span style=""font-size:30px; font-family: monospace"">pousou</span>"," ","","exp-sent","pousou","","",""
"","756","html-keyboard-response","96","279756","0.0-3.0-1.66","<span style=""font-size:30px; font-family: monospace"">no</span>"," ","","exp-sent","no","","",""
"","833","html-keyboard-response","97","280851","0.0-3.0-1.67","<span style=""font-size:30px; font-family: monospace"">ombro</span>"," ","","exp-sent","ombro","","",""
"","1421","html-keyboard-response","98","282523","0.0-3.0-1.68","<span style=""font-size:30px; font-family: monospace"">daquela</span>"," ","","exp-sent","daquela","","",""
"","949","html-keyboard-response","99","283725","0.0-3.0-1.69","<span style=""font-size:30px; font-family: monospace"">moça.</span>"," ","","exp-sent","moça.","","",""
"","null","html-keyboard-response","100","285002","0.0-3.0-0.70-0.70","<span style= ""font-size:30px; font-family: monospace"">+</span>","null","fixation","","","","",""
"","818","html-keyboard-response","101","286078","0.0-3.0-1.70","<span style=""font-size:30px; font-family: monospace"">Eu</span>"," ","","exp-sent","Eu","","",""
"","923","html-keyboard-response","102","287267","0.0-3.0-1.71","<span style=""font-size:30px; font-family: monospace"">quero</span>"," ","","exp-sent","quero","","",""
"","798","html-keyboard-response","103","288322","0.0-3.0-1.72","<span style=""font-size:30px; font-family: monospace"">um</span>"," ","","exp-sent","um","","",""
"","1183","html-keyboard-response","104","289763","0.0-3.0-1.73","<span style=""font-size:30px; font-family: monospace"">namorado</span>"," ","","exp-sent","namorado","","",""
"","942","html-keyboard-response","105","290961","0.0-3.0-1.74","<span style=""font-size:30px; font-family: monospace"">honesto</span>"," ","","exp-sent","honesto","","",""
"","593","html-keyboard-response","106","291820","0.0-3.0-1.75","<span style=""font-size:30px; font-family: monospace"">e</span>"," ","","exp-sent","e","","",""
"","1095","html-keyboard-response","107","293171","0.0-3.0-1.76","<span style=""font-size:30px; font-family: monospace"">compreensivo.</span>"," ","","comp","compreensivo.","","",""
"","4447","html-keyboard-response","108","297871","0.0-3.0-2.76-0.76","<span style=""font-size:30px; font-family: monospace"">Eu quero um namorado honesto?</span>","s","","comp","","Eu quero um namorado honesto?","sim","false"
"","null","html-keyboard-response","109","299391","0.0-3.0-0.77-0.77","<span style= ""font-size:30px; font-family: monospace"">+</span>","null","fixation","","","","",""
"","4091","html-keyboard-response","110","303744","0.0-3.0-1.77","<span style=""font-size:30px; font-family: monospace"">A</span>"," ","","exp-sent","A","","",""
"","1279","html-keyboard-response","111","305283","0.0-3.0-1.78","<span style=""font-size:30px; font-family: monospace"">motorista</span>"," ","","exp-sent","motorista","","",""
"","707","html-keyboard-response","112","306241","0.0-3.0-1.79","<span style=""font-size:30px; font-family: monospace"">fez</span>"," ","","exp-sent","fez","","",""
"","641","html-keyboard-response","113","307143","0.0-3.0-1.80","<span style=""font-size:30px; font-family: monospace"">o</span>"," ","","exp-sent","o","","",""
"","877","html-keyboard-response","114","308276","0.0-3.0-1.81","<span style=""font-size:30px; font-family: monospace"">retorno</span>"," ","","exp-sent","retorno","","",""
"","638","html-keyboard-response","115","309168","0.0-3.0-1.82","<span style=""font-size:30px; font-family: monospace"">com</span>"," ","","exp-sent","com","","",""
"","1007","html-keyboard-response","116","310428","0.0-3.0-1.83","<span style=""font-size:30px; font-family: monospace"">cuidado.</span>"," ","","exp-sent","cuidado.","","",""
"","null","html-keyboard-response","117","311694","0.0-3.0-0.84-0.84","<span style= ""font-size:30px; font-family: monospace"">+</span>","null","fixation","","","","",""
"","112","html-keyboard-response","118","312058","0.0-3.0-1.84","<span style=""font-size:30px; font-family: monospace"">Contos</span>"," ","","exp-sent","Contos","","",""
"","1176","html-keyboard-response","119","313494","0.0-3.0-1.85","<span style=""font-size:30px; font-family: monospace"">de</span>"," ","","exp-sent","de","","",""
"","1209","html-keyboard-response","120","314956","0.0-3.0-1.86","<span style=""font-size:30px; font-family: monospace"">ação</span>"," ","","exp-sent","ação","","",""
"","905","html-keyboard-response","121","316119","0.0-3.0-1.87","<span style=""font-size:30px; font-family: monospace"">têm</span>"," ","","exp-sent","têm","","",""
"","1191","html-keyboard-response","122","317570","0.0-3.0-1.88","<span style=""font-size:30px; font-family: monospace"">chantagem</span>"," ","","exp-sent","chantagem","","",""
"","878","html-keyboard-response","123","318706","0.0-3.0-1.89","<span style=""font-size:30px; font-family: monospace"">e</span>"," ","","exp-sent","e","","",""
"","708","html-keyboard-response","124","319670","0.0-3.0-1.90","<span style=""font-size:30px; font-family: monospace"">muita</span>"," ","","exp-sent","muita","","",""
"","926","html-keyboard-response","125","320856","0.0-3.0-1.91","<span style=""font-size:30px; font-family: monospace"">luta.</span>"," ","","exp-sent","luta.","","",""
"","null","html-keyboard-response","126","322116","0.0-3.0-0.92-0.92","<span style= ""font-size:30px; font-family: monospace"">+</span>","null","fixation","","","","",""
"","906","html-keyboard-response","127","323286","0.0-3.0-1.92","<span style=""font-size:30px; font-family: monospace"">A</span>"," ","","exp-sent","A","","",""
"","1244","html-keyboard-response","128","324786","0.0-3.0-1.93","<span style=""font-size:30px; font-family: monospace"">bisavó</span>"," ","","exp-sent","bisavó","","",""
"","951","html-keyboard-response","129","326003","0.0-3.0-1.94","<span style=""font-size:30px; font-family: monospace"">recebeu</span>"," ","","exp-sent","recebeu","","",""
"","755","html-keyboard-response","130","327012","0.0-3.0-1.95","<span style=""font-size:30px; font-family: monospace"">um</span>"," ","","exp-sent","um","","",""
"","969","html-keyboard-response","131","328245","0.0-3.0-1.96","<span style=""font-size:30px; font-family: monospace"">benefício</span>"," ","","exp-sent","benefício","","",""
"","1029","html-keyboard-response","132","329537","0.0-3.0-1.97","<span style=""font-size:30px; font-family: monospace"">temporário</span>"," ","","exp-sent","temporário","","",""
"","690","html-keyboard-response","133","330480","0.0-3.0-1.98","<span style=""font-size:30px; font-family: monospace"">do</span>"," ","","exp-sent","do","","",""
"","1191","html-keyboard-response","134","331928","0.0-3.0-1.99","<span style=""font-size:30px; font-family: monospace"">governo.</span>"," ","","exp-sent","governo.","","",""
"","null","html-keyboard-response","135","333188","0.0-3.0-0.100-0.100","<span style= ""font-size:30px; font-family: monospace"">+</span>","null","fixation","","","","",""
"","761","html-keyboard-response","136","334213","0.0-3.0-1.100","<span style=""font-size:30px; font-family: monospace"">As</span>"," ","","exp-sent","As","","",""
"","967","html-keyboard-response","137","335432","0.0-3.0-1.101","<span style=""font-size:30px; font-family: monospace"">crianças</span>"," ","","exp-sent","crianças","","",""
"","1106","html-keyboard-response","138","336792","0.0-3.0-1.102","<span style=""font-size:30px; font-family: monospace"">brincaram</span>"," ","","exp-sent","brincaram","","",""
"","698","html-keyboard-response","139","337750","0.0-3.0-1.103","<span style=""font-size:30px; font-family: monospace"">no</span>"," ","","exp-sent","no","","",""
"","1039","html-keyboard-response","140","339045","0.0-3.0-1.104","<span style=""font-size:30px; font-family: monospace"">balanço</span>"," ","","exp-sent","balanço","","",""
"","627","html-keyboard-response","141","339930","0.0-3.0-1.105","<span style=""font-size:30px; font-family: monospace"">a</span>"," ","","exp-sent","a","","",""
"","910","html-keyboard-response","142","341101","0.0-3.0-1.106","<span style=""font-size:30px; font-family: monospace"">tarde</span>"," ","","exp-sent","tarde","","",""
"","955","html-keyboard-response","143","342308","0.0-3.0-1.107","<span style=""font-size:30px; font-family: monospace"">toda.</span>"," ","","exp-sent","toda.","","",""
"","null","html-keyboard-response","144","343577","0.0-3.0-0.108-0.108","<span style= ""font-size:30px; font-family: monospace"">+</span>","null","fixation","","","","",""
"","816","html-keyboard-response","145","344651","0.0-3.0-1.108","<span style=""font-size:30px; font-family: monospace"">Ela</span>"," ","","exp-sent","Ela","","",""
"","1082","html-keyboard-response","146","345996","0.0-3.0-1.109","<span style=""font-size:30px; font-family: monospace"">gosta</span>"," ","","exp-sent","gosta","","",""
"","915","html-keyboard-response","147","347166","0.0-3.0-1.110","<span style=""font-size:30px; font-family: monospace"">de</span>"," ","","exp-sent","de","","",""
"","1154","html-keyboard-response","148","348585","0.0-3.0-1.111","<span style=""font-size:30px; font-family: monospace"">comida</span>"," ","","exp-sent","comida","","",""
"","1007","html-keyboard-response","149","349861","0.0-3.0-1.112","<span style=""font-size:30px; font-family: monospace"">natural</span>"," ","","exp-sent","natural","","",""
"","825","html-keyboard-response","150","350941","0.0-3.0-1.113","<span style=""font-size:30px; font-family: monospace"">no</span>"," ","","exp-sent","no","","",""
"","1033","html-keyboard-response","151","352230","0.0-3.0-1.114","<span style=""font-size:30px; font-family: monospace"">almoço.</span>"," ","","comp","almoço.","","",""
"","5348","html-keyboard-response","152","357843","0.0-3.0-2.114-0.114","<span style=""font-size:30px; font-family: monospace"">Ela gosta de comida natural no almoço?</span>","s","","comp","","Ela gosta de comida natural no almoço?","sim","false"
"","null","html-keyboard-response","153","359356","0.0-3.0-0.115-0.115","<span style= ""font-size:30px; font-family: monospace"">+</span>","null","fixation","","","","",""
"","3448","html-keyboard-response","154","363058","0.0-3.0-1.115","<span style=""font-size:30px; font-family: monospace"">Ganhamos</span>"," ","","exp-sent","Ganhamos","","",""
"","1546","html-keyboard-response","155","364870","0.0-3.0-1.116","<span style=""font-size:30px; font-family: monospace"">passagem</span>"," ","","exp-sent","passagem","","",""
"","798","html-keyboard-response","156","365920","0.0-3.0-1.117","<span style=""font-size:30px; font-family: monospace"">para</span>"," ","","exp-sent","para","","",""
"","834","html-keyboard-response","157","367006","0.0-3.0-1.118","<span style=""font-size:30px; font-family: monospace"">uma</span>"," ","","exp-sent","uma","","",""
"","965","html-keyboard-response","158","368221","0.0-3.0-1.119","<span style=""font-size:30px; font-family: monospace"">viagem</span>"," ","","exp-sent","viagem","","",""
"","622","html-keyboard-response","159","369096","0.0-3.0-1.120","<span style=""font-size:30px; font-family: monospace"">de</span>"," ","","exp-sent","de","","",""
"","1030","html-keyboard-response","160","370383","0.0-3.0-1.121","<span style=""font-size:30px; font-family: monospace"">férias.</span>"," ","","exp-sent","férias.","","",""
"","null","html-keyboard-response","161","371642","0.0-3.0-0.122-0.122","<span style= ""font-size:30px; font-family: monospace"">+</span>","null","fixation","","","","",""
"","845","html-keyboard-response","162","372750","0.0-3.0-1.122","<span style=""font-size:30px; font-family: monospace"">Caiu</span>"," ","","exp-sent","Caiu","","",""
"","2057","html-keyboard-response","163","375063","0.0-3.0-1.123","<span style=""font-size:30px; font-family: monospace"">algo</span>"," ","","exp-sent","algo","","",""
"","1164","html-keyboard-response","164","376493","0.0-3.0-1.124","<span style=""font-size:30px; font-family: monospace"">no</span>"," ","","exp-sent","no","","",""
"","1260","html-keyboard-response","165","378015","0.0-3.0-1.125","<span style=""font-size:30px; font-family: monospace"">meu</span>"," ","","exp-sent","meu","","",""
"","1549","html-keyboard-response","166","379815","0.0-3.0-1.126","<span style=""font-size:30px; font-family: monospace"">olho</span>"," ","","exp-sent","olho","","",""
"","777","html-keyboard-response","167","380848","0.0-3.0-1.127","<span style=""font-size:30px; font-family: monospace"">ontem</span>"," ","","exp-sent","ontem","","",""
"","703","html-keyboard-response","168","381805","0.0-3.0-1.128","<span style=""font-size:30px; font-family: monospace"">de</span>"," ","","exp-sent","de","","",""
"","1411","html-keyboard-response","169","383474","0.0-3.0-1.129","<span style=""font-size:30px; font-family: monospace"">tarde.</span>"," ","","exp-sent","tarde.","","",""
"","null","html-keyboard-response","170","384764","0.0-3.0-0.130-0.130","<span style= ""font-size:30px; font-family: monospace"">+</span>","null","fixation","","","","",""
"","885","html-keyboard-response","171","385903","0.0-3.0-1.130","<span style=""font-size:30px; font-family: monospace"">Não</span>"," ","","exp-sent","Não","","",""
"","999","html-keyboard-response","172","387163","0.0-3.0-1.131","<span style=""font-size:30px; font-family: monospace"">havia</span>"," ","","exp-sent","havia","","",""
"","878","html-keyboard-response","173","388298","0.0-3.0-1.132","<span style=""font-size:30px; font-family: monospace"">mais</span>"," ","","exp-sent","mais","","",""
"","936","html-keyboard-response","174","389489","0.0-3.0-1.133","<span style=""font-size:30px; font-family: monospace"">nenhum</span>"," ","","exp-sent","nenhum","","",""
"","1003","html-keyboard-response","175","390743","0.0-3.0-1.134","<span style=""font-size:30px; font-family: monospace"">ingresso</span>"," ","","exp-sent","ingresso","","",""
"","640","html-keyboard-response","176","391644","0.0-3.0-1.135","<span style=""font-size:30px; font-family: monospace"">para</span>"," ","","exp-sent","para","","",""
"","808","html-keyboard-response","177","392708","0.0-3.0-1.136","<span style=""font-size:30px; font-family: monospace"">o</span>"," ","","exp-sent","o","","",""
"","928","html-keyboard-response","178","393895","0.0-3.0-1.137","<span style=""font-size:30px; font-family: monospace"">evento.</span>"," ","","exp-sent","evento.","","",""
"","null","html-keyboard-response","179","395155","0.0-3.0-0.138-0.138","<span style= ""font-size:30px; font-family: monospace"">+</span>","null","fixation","","","","",""
"","695","html-keyboard-response","180","396102","0.0-3.0-1.138","<span style=""font-size:30px; font-family: monospace"">A</span>"," ","","exp-sent","A","","",""
"","726","html-keyboard-response","181","397086","0.0-3.0-1.139","<span style=""font-size:30px; font-family: monospace"">médica</span>"," ","","exp-sent","médica","","",""
"","992","html-keyboard-response","182","398343","0.0-3.0-1.140","<span style=""font-size:30px; font-family: monospace"">descobriu</span>"," ","","exp-sent","descobriu","","",""
"","636","html-keyboard-response","183","399241","0.0-3.0-1.141","<span style=""font-size:30px; font-family: monospace"">uma</span>"," ","","exp-sent","uma","","",""
"","913","html-keyboard-response","184","400411","0.0-3.0-1.142","<span style=""font-size:30px; font-family: monospace"">cura</span>"," ","","exp-sent","cura","","",""
"","898","html-keyboard-response","185","401574","0.0-3.0-1.143","<span style=""font-size:30px; font-family: monospace"">para</span>"," ","","exp-sent","para","","",""
"","604","html-keyboard-response","186","402432","0.0-3.0-1.144","<span style=""font-size:30px; font-family: monospace"">a</span>"," ","","exp-sent","a","","",""
"","1286","html-keyboard-response","187","403975","0.0-3.0-1.145","<span style=""font-size:30px; font-family: monospace"">doença.</span>"," ","","exp-sent","doença.","","",""
"","null","html-keyboard-response","188","405247","0.0-3.0-0.146-0.146","<span style= ""font-size:30px; font-family: monospace"">+</span>","null","fixation","","","","",""
"","1335","html-keyboard-response","189","406839","0.0-3.0-1.146","<span style=""font-size:30px; font-family: monospace"">O</span>"," ","","exp-sent","O","","",""
"","723","html-keyboard-response","190","407825","0.0-3.0-1.147","<span style=""font-size:30px; font-family: monospace"">menino</span>"," ","","exp-sent","menino","","",""
"","851","html-keyboard-response","191","408941","0.0-3.0-1.148","<span style=""font-size:30px; font-family: monospace"">riscou</span>"," ","","exp-sent","riscou","","",""
"","734","html-keyboard-response","192","409932","0.0-3.0-1.149","<span style=""font-size:30px; font-family: monospace"">o</span>"," ","","exp-sent","o","","",""
"","1282","html-keyboard-response","193","411475","0.0-3.0-1.150","<span style=""font-size:30px; font-family: monospace"">caderno</span>"," ","","exp-sent","caderno","","",""
"","659","html-keyboard-response","194","412394","0.0-3.0-1.151","<span style=""font-size:30px; font-family: monospace"">com</span>"," ","","exp-sent","com","","",""
"","672","html-keyboard-response","195","413331","0.0-3.0-1.152","<span style=""font-size:30px; font-family: monospace"">a</span>"," ","","exp-sent","a","","",""
"","951","html-keyboard-response","196","414542","0.0-3.0-1.153","<span style=""font-size:30px; font-family: monospace"">caneta.</span>"," ","","comp","caneta.","","",""
"","13688","html-keyboard-response","197","428489","0.0-3.0-2.153-0.153","<span style=""font-size:30px; font-family: monospace"">O menino riscou a parede com a caneta?</span>","s","","comp","","O menino riscou a parede com a caneta?","não","false"
"","null","html-keyboard-response","198","430005","0.0-3.0-0.154-0.154","<span style= ""font-size:30px; font-family: monospace"">+</span>","null","fixation","","","","",""
"","1008","html-keyboard-response","199","431270","0.0-3.0-1.154","<span style=""font-size:30px; font-family: monospace"">A</span>"," ","","exp-sent","A","","",""
"","693","html-keyboard-response","200","432226","0.0-3.0-1.155","<span style=""font-size:30px; font-family: monospace"">senhora</span>"," ","","exp-sent","senhora","","",""
"","1467","html-keyboard-response","201","433947","0.0-3.0-1.156","<span style=""font-size:30px; font-family: monospace"">cumprimentou</span>"," ","","exp-sent","cumprimentou","","",""
"","740","html-keyboard-response","202","434951","0.0-3.0-1.157","<span style=""font-size:30px; font-family: monospace"">o</span>"," ","","exp-sent","o","","",""
"","1738","html-keyboard-response","203","436943","0.0-3.0-1.158","<span style=""font-size:30px; font-family: monospace"">operador</span>"," ","","exp-sent","operador","","",""
"","573","html-keyboard-response","204","437780","0.0-3.0-1.159","<span style=""font-size:30px; font-family: monospace"">de</span>"," ","","exp-sent","de","","",""
"","1777","html-keyboard-response","205","439817","0.0-3.0-1.160","<span style=""font-size:30px; font-family: monospace"">caixa.</span>"," ","","exp-sent","caixa.","","",""
"","null","html-keyboard-response","206","441089","0.0-3.0-0.161-0.161","<span style= ""font-size:30px; font-family: monospace"">+</span>","null","fixation","","","","",""
"","507","html-keyboard-response","207","441848","0.0-3.0-1.161","<span style=""font-size:30px; font-family: monospace"">A</span>"," ","","exp-sent","A","","",""
"","1363","html-keyboard-response","208","443479","0.0-3.0-1.162","<span style=""font-size:30px; font-family: monospace"">gente</span>"," ","","exp-sent","gente","","",""
"","945","html-keyboard-response","209","444684","0.0-3.0-1.163","<span style=""font-size:30px; font-family: monospace"">viu</span>"," ","","exp-sent","viu","","",""
"","747","html-keyboard-response","210","445685","0.0-3.0-1.164","<span style=""font-size:30px; font-family: monospace"">o</span>"," ","","exp-sent","o","","",""
"","1091","html-keyboard-response","211","447033","0.0-3.0-1.165","<span style=""font-size:30px; font-family: monospace"">eclipse</span>"," ","","exp-sent","eclipse","","",""
"","1094","html-keyboard-response","212","448390","0.0-3.0-1.166","<span style=""font-size:30px; font-family: monospace"">lunar</span>"," ","","exp-sent","lunar","","",""
"","1283","html-keyboard-response","213","449935","0.0-3.0-1.167","<span style=""font-size:30px; font-family: monospace"">durante</span>"," ","","exp-sent","durante","","",""
"","1303","html-keyboard-response","214","451511","0.0-3.0-1.168","<span style=""font-size:30px; font-family: monospace"">o</span>"," ","","exp-sent","o","","",""
"","1862","html-keyboard-response","215","453625","0.0-3.0-1.169","<span style=""font-size:30px; font-family: monospace"">dia.</span>"," ","","exp-sent","dia.","","",""
"","null","html-keyboard-response","216","454888","0.0-3.0-0.170-0.170","<span style= ""font-size:30px; font-family: monospace"">+</span>","null","fixation","","","","",""
"","646","html-keyboard-response","217","455796","0.0-3.0-1.170","<span style=""font-size:30px; font-family: monospace"">A</span>"," ","","exp-sent","A","","",""
"","1875","html-keyboard-response","218","457932","0.0-3.0-1.171","<span style=""font-size:30px; font-family: monospace"">mordida</span>"," ","","exp-sent","mordida","","",""
"","547","html-keyboard-response","219","458748","0.0-3.0-1.172","<span style=""font-size:30px; font-family: monospace"">do</span>"," ","","exp-sent","do","","",""
"","1373","html-keyboard-response","220","460376","0.0-3.0-1.173","<span style=""font-size:30px; font-family: monospace"">cachorro</span>"," ","","exp-sent","cachorro","","",""
"","1904","html-keyboard-response","221","462535","0.0-3.0-1.174","<span style=""font-size:30px; font-family: monospace"">voraz</span>"," ","","exp-sent","voraz","","",""
"","1676","html-keyboard-response","222","464472","0.0-3.0-1.175","<span style=""font-size:30px; font-family: monospace"">causou</span>"," ","","exp-sent","causou","","",""
"","703","html-keyboard-response","223","465434","0.0-3.0-1.176","<span style=""font-size:30px; font-family: monospace"">uma</span>"," ","","exp-sent","uma","","",""
"","1357","html-keyboard-response","224","467062","0.0-3.0-1.177","<span style=""font-size:30px; font-family: monospace"">cicatriz.</span>"," ","","exp-sent","cicatriz.","","",""
"","null","html-keyboard-response","225","468338","0.0-3.0-0.178-0.178","<span style= ""font-size:30px; font-family: monospace"">+</span>","null","fixation","","","","",""
"","919","html-keyboard-response","226","469516","0.0-3.0-1.178","<span style=""font-size:30px; font-family: monospace"">Elas</span>"," ","","exp-sent","Elas","","",""
"","1453","html-keyboard-response","227","471230","0.0-3.0-1.179","<span style=""font-size:30px; font-family: monospace"">não</span>"," ","","exp-sent","não","","",""
"","2105","html-keyboard-response","228","473592","0.0-3.0-1.180","<span style=""font-size:30px; font-family: monospace"">viram</span>"," ","","exp-sent","viram","","",""
"","1152","html-keyboard-response","229","475005","0.0-3.0-1.181","<span style=""font-size:30px; font-family: monospace"">nenhuma</span>"," ","","exp-sent","nenhuma","","",""
"","904","html-keyboard-response","230","476163","0.0-3.0-1.182","<span style=""font-size:30px; font-family: monospace"">diferença</span>"," ","","exp-sent","diferença","","",""
"","851","html-keyboard-response","231","477272","0.0-3.0-1.183","<span style=""font-size:30px; font-family: monospace"">entre</span>"," ","","exp-sent","entre","","",""
"","811","html-keyboard-response","232","478334","0.0-3.0-1.184","<span style=""font-size:30px; font-family: monospace"">os</span>"," ","","exp-sent","os","","",""
"","2474","html-keyboard-response","233","481062","0.0-3.0-1.185","<span style=""font-size:30px; font-family: monospace"">textos.</span>"," ","","exp-sent","textos.","","",""
"","null","html-keyboard-response","234","482349","0.0-3.0-0.186-0.186","<span style= ""font-size:30px; font-family: monospace"">+</span>","null","fixation","","","","",""
"","1151","html-keyboard-response","235","483756","0.0-3.0-1.186","<span style=""font-size:30px; font-family: monospace"">Amanhã</span>"," ","","exp-sent","Amanhã","","",""
"","805","html-keyboard-response","236","484824","0.0-3.0-1.187","<span style=""font-size:30px; font-family: monospace"">vai</span>"," ","","exp-sent","vai","","",""
"","790","html-keyboard-response","237","485867","0.0-3.0-1.188","<span style=""font-size:30px; font-family: monospace"">ter</span>"," ","","exp-sent","ter","","",""
"","765","html-keyboard-response","238","486891","0.0-3.0-1.189","<span style=""font-size:30px; font-family: monospace"">um</span>"," ","","exp-sent","um","","",""
"","1138","html-keyboard-response","239","488306","0.0-3.0-1.190","<span style=""font-size:30px; font-family: monospace"">bazar</span>"," ","","exp-sent","bazar","","",""
"","828","html-keyboard-response","240","489398","0.0-3.0-1.191","<span style=""font-size:30px; font-family: monospace"">no</span>"," ","","exp-sent","no","","",""
"","1121","html-keyboard-response","241","490779","0.0-3.0-1.192","<span style=""font-size:30px; font-family: monospace"">bairro.</span>"," ","","comp","bairro.","","",""
"","18039","html-keyboard-response","242","509075","0.0-3.0-2.192-0.192","<span style=""font-size:30px; font-family: monospace"">Amanhã vai acontecer um bazar no bairro?</span>","n","","comp","","Amanhã vai acontecer um bazar no bairro?","sim","false"
"","null","html-keyboard-response","243","510592","0.0-3.0-0.193-0.193","<span style= ""font-size:30px; font-family: monospace"">+</span>","null","fixation","","","","",""
"","1884","html-keyboard-response","244","512727","0.0-3.0-1.193","<span style=""font-size:30px; font-family: monospace"">O</span>"," ","","exp-sent","O","","",""
"","628","html-keyboard-response","245","513610","0.0-3.0-1.194","<span style=""font-size:30px; font-family: monospace"">moço</span>"," ","","exp-sent","moço","","",""
"","733","html-keyboard-response","246","514604","0.0-3.0-1.195","<span style=""font-size:30px; font-family: monospace"">usou</span>"," ","","exp-sent","usou","","",""
"","802","html-keyboard-response","247","515657","0.0-3.0-1.196","<span style=""font-size:30px; font-family: monospace"">várias</span>"," ","","exp-sent","várias","","",""
"","782","html-keyboard-response","248","516710","0.0-3.0-1.197","<span style=""font-size:30px; font-family: monospace"">velas</span>"," ","","exp-sent","velas","","",""
"","560","html-keyboard-response","249","517523","0.0-3.0-1.198","<span style=""font-size:30px; font-family: monospace"">no</span>"," ","","exp-sent","no","","",""
"","1568","html-keyboard-response","250","519344","0.0-3.0-1.199","<span style=""font-size:30px; font-family: monospace"">enfeite</span>"," ","","exp-sent","enfeite","","",""
"","516","html-keyboard-response","251","520124","0.0-3.0-1.200","<span style=""font-size:30px; font-family: monospace"">de</span>"," ","","exp-sent","de","","",""
"","1228","html-keyboard-response","252","521607","0.0-3.0-1.201","<span style=""font-size:30px; font-family: monospace"">mesa.</span>"," ","","exp-sent","mesa.","","",""
"","null","html-keyboard-response","253","522882","0.0-3.0-0.202-0.202","<span style= ""font-size:30px; font-family: monospace"">+</span>","null","fixation","","","","",""
"","1148","html-keyboard-response","254","524281","0.0-3.0-1.202","<span style=""font-size:30px; font-family: monospace"">Gostamos</span>"," ","","exp-sent","Gostamos","","",""
"","553","html-keyboard-response","255","525086","0.0-3.0-1.203","<span style=""font-size:30px; font-family: monospace"">de</span>"," ","","exp-sent","de","","",""
"","954","html-keyboard-response","256","526298","0.0-3.0-1.204","<span style=""font-size:30px; font-family: monospace"">suco</span>"," ","","exp-sent","suco","","",""
"","603","html-keyboard-response","257","527160","0.0-3.0-1.205","<span style=""font-size:30px; font-family: monospace"">em</span>"," ","","exp-sent","em","","",""
"","1899","html-keyboard-response","258","529311","0.0-3.0-1.206","<span style=""font-size:30px; font-family: monospace"">garrafa</span>"," ","","exp-sent","garrafa","","",""
"","500","html-keyboard-response","259","530067","0.0-3.0-1.207","<span style=""font-size:30px; font-family: monospace"">de</span>"," ","","exp-sent","de","","",""
"","1697","html-keyboard-response","260","532017","0.0-3.0-1.208","<span style=""font-size:30px; font-family: monospace"">tamanho</span>"," ","","exp-sent","tamanho","","",""
"","1847","html-keyboard-response","261","534117","0.0-3.0-1.209","<span style=""font-size:30px; font-family: monospace"">pequeno.</span>"," ","","exp-sent","pequeno.","","",""
"","null","html-keyboard-response","262","535383","0.0-3.0-0.210-0.210","<span style= ""font-size:30px; font-family: monospace"">+</span>","null","fixation","","","","",""
"","855","html-keyboard-response","263","536502","0.0-3.0-1.210","<span style=""font-size:30px; font-family: monospace"">Sua</span>"," ","","exp-sent","Sua","","",""
"","750","html-keyboard-response","264","537515","0.0-3.0-1.211","<span style=""font-size:30px; font-family: monospace"">filha</span>"," ","","exp-sent","filha","","",""
"","770","html-keyboard-response","265","538541","0.0-3.0-1.212","<span style=""font-size:30px; font-family: monospace"">é</span>"," ","","exp-sent","é","","",""
"","982","html-keyboard-response","266","539776","0.0-3.0-1.213","<span style=""font-size:30px; font-family: monospace"">muito</span>"," ","","exp-sent","muito","","",""
"","743","html-keyboard-response","267","540777","0.0-3.0-1.214","<span style=""font-size:30px; font-family: monospace"">capaz</span>"," ","","exp-sent","capaz","","",""
"","650","html-keyboard-response","268","541691","0.0-3.0-1.215","<span style=""font-size:30px; font-family: monospace"">e</span>"," ","","exp-sent","e","","",""
"","938","html-keyboard-response","269","542883","0.0-3.0-1.216","<span style=""font-size:30px; font-family: monospace"">esforçada.</span>"," ","","exp-sent","esforçada.","","",""
"","null","html-keyboard-response","270","544154","0.0-3.0-0.217-0.217","<span style= ""font-size:30px; font-family: monospace"">+</span>","null","fixation","","","","",""
"","68","html-keyboard-response","271","544477","0.0-3.0-1.217","<span style=""font-size:30px; font-family: monospace"">A</span>"," ","","exp-sent","A","","",""
"","1019","html-keyboard-response","272","545763","0.0-3.0-1.218","<span style=""font-size:30px; font-family: monospace"">batida</span>"," ","","exp-sent","batida","","",""
"","754","html-keyboard-response","273","546781","0.0-3.0-1.219","<span style=""font-size:30px; font-family: monospace"">causou</span>"," ","","exp-sent","causou","","",""
"","710","html-keyboard-response","274","547763","0.0-3.0-1.220","<span style=""font-size:30px; font-family: monospace"">muita</span>"," ","","exp-sent","muita","","",""
"","1053","html-keyboard-response","275","549068","0.0-3.0-1.221","<span style=""font-size:30px; font-family: monospace"">confusão</span>"," ","","exp-sent","confusão","","",""
"","547","html-keyboard-response","276","549876","0.0-3.0-1.222","<span style=""font-size:30px; font-family: monospace"">na</span>"," ","","exp-sent","na","","",""
"","827","html-keyboard-response","277","550954","0.0-3.0-1.223","<span style=""font-size:30px; font-family: monospace"">estrada.</span>"," ","","exp-sent","estrada.","","",""
"","null","html-keyboard-response","278","552215","0.0-3.0-0.224-0.224","<span style= ""font-size:30px; font-family: monospace"">+</span>","null","fixation","","","","",""
"","796","html-keyboard-response","279","553270","0.0-3.0-1.224","<span style=""font-size:30px; font-family: monospace"">Eu</span>"," ","","exp-sent","Eu","","",""
"","1206","html-keyboard-response","280","554731","0.0-3.0-1.225","<span style=""font-size:30px; font-family: monospace"">cozinhei</span>"," ","","exp-sent","cozinhei","","",""
"","584","html-keyboard-response","281","555578","0.0-3.0-1.226","<span style=""font-size:30px; font-family: monospace"">um</span>"," ","","exp-sent","um","","",""
"","833","html-keyboard-response","282","556667","0.0-3.0-1.227","<span style=""font-size:30px; font-family: monospace"">almoço</span>"," ","","exp-sent","almoço","","",""
"","1015","html-keyboard-response","283","557943","0.0-3.0-1.228","<span style=""font-size:30px; font-family: monospace"">nutritivo</span>"," ","","exp-sent","nutritivo","","",""
"","578","html-keyboard-response","284","558778","0.0-3.0-1.229","<span style=""font-size:30px; font-family: monospace"">para</span>"," ","","exp-sent","para","","",""
"","2494","html-keyboard-response","285","561536","0.0-3.0-1.230","<span style=""font-size:30px; font-family: monospace"">hoje.</span>"," ","","comp","hoje.","","",""
"","15512","html-keyboard-response","286","577308","0.0-3.0-2.230-0.230","<span style=""font-size:30px; font-family: monospace"">O almoço era nutritivo?</span>","s","","comp","","O almoço era nutritivo?","sim","false"
"","null","html-keyboard-response","287","578822","0.0-3.0-0.231-0.231","<span style= ""font-size:30px; font-family: monospace"">+</span>","null","fixation","","","","",""
"","1124","html-keyboard-response","288","580203","0.0-3.0-1.231","<span style=""font-size:30px; font-family: monospace"">Ursos</span>"," ","","exp-sent","Ursos","","",""
"","542","html-keyboard-response","289","581007","0.0-3.0-1.232","<span style=""font-size:30px; font-family: monospace"">têm</span>"," ","","exp-sent","têm","","",""
"","529","html-keyboard-response","290","581802","0.0-3.0-1.233","<span style=""font-size:30px; font-family: monospace"">uma</span>"," ","","exp-sent","uma","","",""
"","1895","html-keyboard-response","291","583961","0.0-3.0-1.234","<span style=""font-size:30px; font-family: monospace"">patada</span>"," ","","exp-sent","patada","","",""
"","1022","html-keyboard-response","292","585234","0.0-3.0-1.235","<span style=""font-size:30px; font-family: monospace"">brutal</span>"," ","","exp-sent","brutal","","",""
"","887","html-keyboard-response","293","586379","0.0-3.0-1.236","<span style=""font-size:30px; font-family: monospace"">e</span>"," ","","exp-sent","e","","",""
"","1917","html-keyboard-response","294","588556","0.0-3.0-1.237","<span style=""font-size:30px; font-family: monospace"">poderosa.</span>"," ","","exp-sent","poderosa.","","",""
"","null","html-keyboard-response","295","589812","0.0-3.0-0.238-0.238","<span style= ""font-size:30px; font-family: monospace"">+</span>","null","fixation","","","","",""
"","673","html-keyboard-response","296","590742","0.0-3.0-1.238","<span style=""font-size:30px; font-family: monospace"">Eu</span>"," ","","exp-sent","Eu","","",""
"","735","html-keyboard-response","297","591740","0.0-3.0-1.239","<span style=""font-size:30px; font-family: monospace"">fiz</span>"," ","","exp-sent","fiz","","",""
"","881","html-keyboard-response","298","592877","0.0-3.0-1.240","<span style=""font-size:30px; font-family: monospace"">aulas</span>"," ","","exp-sent","aulas","","",""
"","477","html-keyboard-response","299","593617","0.0-3.0-1.241","<span style=""font-size:30px; font-family: monospace"">de</span>"," ","","exp-sent","de","","",""
"","1118","html-keyboard-response","300","594990","0.0-3.0-1.242","<span style=""font-size:30px; font-family: monospace"">espanhol</span>"," ","","exp-sent","espanhol","","",""
"","1052","html-keyboard-response","301","596297","0.0-3.0-1.243","<span style=""font-size:30px; font-family: monospace"">nesta</span>"," ","","exp-sent","nesta","","",""
"","1079","html-keyboard-response","302","597636","0.0-3.0-1.244","<span style=""font-size:30px; font-family: monospace"">cidade.</span>"," ","","exp-sent","cidade.","","",""
"","null","html-keyboard-response","303","598895","0.0-3.0-0.245-0.245","<span style= ""font-size:30px; font-family: monospace"">+</span>","null","fixation","","","","",""
"","571","html-keyboard-response","304","599723","0.0-3.0-1.245","<span style=""font-size:30px; font-family: monospace"">Ele</span>"," ","","exp-sent","Ele","","",""
"","679","html-keyboard-response","305","600663","0.0-3.0-1.246","<span style=""font-size:30px; font-family: monospace"">comprou</span>"," ","","exp-sent","comprou","","",""
"","897","html-keyboard-response","306","601811","0.0-3.0-1.247","<span style=""font-size:30px; font-family: monospace"">mais</span>"," ","","exp-sent","mais","","",""
"","827","html-keyboard-response","307","602905","0.0-3.0-1.248","<span style=""font-size:30px; font-family: monospace"">uma</span>"," ","","exp-sent","uma","","",""
"","972","html-keyboard-response","308","604130","0.0-3.0-1.249","<span style=""font-size:30px; font-family: monospace"">esponja</span>"," ","","exp-sent","esponja","","",""
"","617","html-keyboard-response","309","605001","0.0-3.0-1.250","<span style=""font-size:30px; font-family: monospace"">para</span>"," ","","exp-sent","para","","",""
"","525","html-keyboard-response","310","605779","0.0-3.0-1.251","<span style=""font-size:30px; font-family: monospace"">a</span>"," ","","exp-sent","a","","",""
"","1073","html-keyboard-response","311","607112","0.0-3.0-1.252","<span style=""font-size:30px; font-family: monospace"">cozinha.</span>"," ","","exp-sent","cozinha.","","",""
"","null","html-keyboard-response","312","608376","0.0-3.0-0.253-0.253","<span style= ""font-size:30px; font-family: monospace"">+</span>","null","fixation","","","","",""
"","652","html-keyboard-response","313","609281","0.0-3.0-1.253","<span style=""font-size:30px; font-family: monospace"">Ele</span>"," ","","exp-sent","Ele","","",""
"","1788","html-keyboard-response","314","611334","0.0-3.0-1.254","<span style=""font-size:30px; font-family: monospace"">teve</span>"," ","","exp-sent","teve","","",""
"","1024","html-keyboard-response","315","612616","0.0-3.0-1.255","<span style=""font-size:30px; font-family: monospace"">um</span>"," ","","exp-sent","um","","",""
"","590","html-keyboard-response","316","613464","0.0-3.0-1.256","<span style=""font-size:30px; font-family: monospace"">sono</span>"," ","","exp-sent","sono","","",""
"","982","html-keyboard-response","317","614701","0.0-3.0-1.257","<span style=""font-size:30px; font-family: monospace"">bizarro</span>"," ","","exp-sent","bizarro","","",""
"","631","html-keyboard-response","318","615588","0.0-3.0-1.258","<span style=""font-size:30px; font-family: monospace"">sem</span>"," ","","exp-sent","sem","","",""
"","912","html-keyboard-response","319","616757","0.0-3.0-1.259","<span style=""font-size:30px; font-family: monospace"">nenhum</span>"," ","","exp-sent","nenhum","","",""
"","1003","html-keyboard-response","320","618020","0.0-3.0-1.260","<span style=""font-size:30px; font-family: monospace"">motivo.</span>"," ","","exp-sent","motivo.","","",""
"","null","html-keyboard-response","321","619289","0.0-3.0-0.261-0.261","<span style= ""font-size:30px; font-family: monospace"">+</span>","null","fixation","","","","",""
"","680","html-keyboard-response","322","620227","0.0-3.0-1.261","<span style=""font-size:30px; font-family: monospace"">A</span>"," ","","exp-sent","A","","",""
"","534","html-keyboard-response","323","621025","0.0-3.0-1.262","<span style=""font-size:30px; font-family: monospace"">moça</span>"," ","","exp-sent","moça","","",""
"","660","html-keyboard-response","324","621961","0.0-3.0-1.263","<span style=""font-size:30px; font-family: monospace"">comprou</span>"," ","","exp-sent","comprou","","",""
"","499","html-keyboard-response","325","622717","0.0-3.0-1.264","<span style=""font-size:30px; font-family: monospace"">um</span>"," ","","exp-sent","um","","",""
"","929","html-keyboard-response","326","623913","0.0-3.0-1.265","<span style=""font-size:30px; font-family: monospace"">diamante</span>"," ","","exp-sent","diamante","","",""
"","506","html-keyboard-response","327","624676","0.0-3.0-1.266","<span style=""font-size:30px; font-family: monospace"">para</span>"," ","","exp-sent","para","","",""
"","536","html-keyboard-response","328","625477","0.0-3.0-1.267","<span style=""font-size:30px; font-family: monospace"">sua</span>"," ","","exp-sent","sua","","",""
"","1100","html-keyboard-response","329","626834","0.0-3.0-1.268","<span style=""font-size:30px; font-family: monospace"">prima.</span>"," ","","comp","prima.","","",""
"","23926","html-keyboard-response","330","651012","0.0-3.0-2.268-0.268","<span style=""font-size:30px; font-family: monospace"">A moça comprou um diamante?</span>","s","","comp","","A moça comprou um diamante?","sim","false"
"","null","html-keyboard-response","331","652532","0.0-3.0-0.269-0.269","<span style= ""font-size:30px; font-family: monospace"">+</span>","null","fixation","","","","",""
"","911","html-keyboard-response","332","653706","0.0-3.0-1.269","<span style=""font-size:30px; font-family: monospace"">A</span>"," ","","exp-sent","A","","",""
"","872","html-keyboard-response","333","654833","0.0-3.0-1.270","<span style=""font-size:30px; font-family: monospace"">força</span>"," ","","exp-sent","força","","",""
"","566","html-keyboard-response","334","655653","0.0-3.0-1.271","<span style=""font-size:30px; font-family: monospace"">d'água</span>"," ","","exp-sent","d'água","","",""
"","599","html-keyboard-response","335","656510","0.0-3.0-1.272","<span style=""font-size:30px; font-family: monospace"">estava</span>"," ","","exp-sent","estava","","",""
"","576","html-keyboard-response","336","657345","0.0-3.0-1.273","<span style=""font-size:30px; font-family: monospace"">normal</span>"," ","","exp-sent","normal","","",""
"","746","html-keyboard-response","337","658344","0.0-3.0-1.274","<span style=""font-size:30px; font-family: monospace"">naquele</span>"," ","","exp-sent","naquele","","",""
"","923","html-keyboard-response","338","659530","0.0-3.0-1.275","<span style=""font-size:30px; font-family: monospace"">dia.</span>"," ","","exp-sent","dia.","","",""
"","null","html-keyboard-response","339","660818","0.0-3.0-0.276-0.276","<span style= ""font-size:30px; font-family: monospace"">+</span>","null","fixation","","","","",""
"","72","html-keyboard-response","340","661145","0.0-3.0-1.276","<span style=""font-size:30px; font-family: monospace"">A</span>"," ","","exp-sent","A","","",""
"","788","html-keyboard-response","341","662198","0.0-3.0-1.277","<span style=""font-size:30px; font-family: monospace"">médica</span>"," ","","exp-sent","médica","","",""
"","869","html-keyboard-response","342","663328","0.0-3.0-1.278","<span style=""font-size:30px; font-family: monospace"">ofereceu</span>"," ","","exp-sent","ofereceu","","",""
"","497","html-keyboard-response","343","664083","0.0-3.0-1.279","<span style=""font-size:30px; font-family: monospace"">a</span>"," ","","exp-sent","a","","",""
"","940","html-keyboard-response","344","665276","0.0-3.0-1.280","<span style=""font-size:30px; font-family: monospace"">pomada</span>"," ","","exp-sent","pomada","","",""
"","641","html-keyboard-response","345","666181","0.0-3.0-1.281","<span style=""font-size:30px; font-family: monospace"">para</span>"," ","","exp-sent","para","","",""
"","489","html-keyboard-response","346","666921","0.0-3.0-1.282","<span style=""font-size:30px; font-family: monospace"">o</span>"," ","","exp-sent","o","","",""
"","1258","html-keyboard-response","347","668431","0.0-3.0-1.283","<span style=""font-size:30px; font-family: monospace"">avô.</span>"," ","","exp-sent","avô.","","",""
"","null","html-keyboard-response","348","669700","0.0-3.0-0.284-0.284","<span style= ""font-size:30px; font-family: monospace"">+</span>","null","fixation","","","","",""
"","676","html-keyboard-response","349","670631","0.0-3.0-1.284","<span style=""font-size:30px; font-family: monospace"">Ele</span>"," ","","exp-sent","Ele","","",""
"","1024","html-keyboard-response","350","671913","0.0-3.0-1.285","<span style=""font-size:30px; font-family: monospace"">conversou</span>"," ","","exp-sent","conversou","","",""
"","514","html-keyboard-response","351","672681","0.0-3.0-1.286","<span style=""font-size:30px; font-family: monospace"">com</span>"," ","","exp-sent","com","","",""
"","492","html-keyboard-response","352","673432","0.0-3.0-1.287","<span style=""font-size:30px; font-family: monospace"">o</span>"," ","","exp-sent","o","","",""
"","1006","html-keyboard-response","353","674691","0.0-3.0-1.288","<span style=""font-size:30px; font-family: monospace"">patrão</span>"," ","","exp-sent","patrão","","",""
"","680","html-keyboard-response","354","675628","0.0-3.0-1.289","<span style=""font-size:30px; font-family: monospace"">durante</span>"," ","","exp-sent","durante","","",""
"","914","html-keyboard-response","355","676794","0.0-3.0-1.290","<span style=""font-size:30px; font-family: monospace"">a</span>"," ","","exp-sent","a","","",""
"","1023","html-keyboard-response","356","678082","0.0-3.0-1.291","<span style=""font-size:30px; font-family: monospace"">tarde.</span>"," ","","exp-sent","tarde.","","",""
"","null","html-keyboard-response","357","679350","0.0-3.0-0.292-0.292","<span style= ""font-size:30px; font-family: monospace"">+</span>","null","fixation","","","","",""
"","118","html-keyboard-response","358","679734","0.0-3.0-1.292","<span style=""font-size:30px; font-family: monospace"">Algumas</span>"," ","","exp-sent","Algumas","","",""
"","937","html-keyboard-response","359","680933","0.0-3.0-1.293","<span style=""font-size:30px; font-family: monospace"">pessoas</span>"," ","","exp-sent","pessoas","","",""
"","1199","html-keyboard-response","360","682385","0.0-3.0-1.294","<span style=""font-size:30px; font-family: monospace"">acreditam</span>"," ","","exp-sent","acreditam","","",""
"","487","html-keyboard-response","361","683138","0.0-3.0-1.295","<span style=""font-size:30px; font-family: monospace"">em</span>"," ","","exp-sent","em","","",""
"","1418","html-keyboard-response","362","684813","0.0-3.0-1.296","<span style=""font-size:30px; font-family: monospace"">espíritos</span>"," ","","exp-sent","espíritos","","",""
"","704","html-keyboard-response","363","685787","0.0-3.0-1.297","<span style=""font-size:30px; font-family: monospace"">e</span>"," ","","exp-sent","e","","",""
"","682","html-keyboard-response","364","686731","0.0-3.0-1.298","<span style=""font-size:30px; font-family: monospace"">em</span>"," ","","exp-sent","em","","",""
"","703","html-keyboard-response","365","687699","0.0-3.0-1.299","<span style=""font-size:30px; font-family: monospace"">outras</span>"," ","","exp-sent","outras","","",""
"","1155","html-keyboard-response","366","689121","0.0-3.0-1.300","<span style=""font-size:30px; font-family: monospace"">vidas.</span>"," ","","exp-sent","vidas.","","",""
"","null","html-keyboard-response","367","690393","0.0-3.0-0.301-0.301","<span style= ""font-size:30px; font-family: monospace"">+</span>","null","fixation","","","","",""
"","689","html-keyboard-response","368","691348","0.0-3.0-1.301","<span style=""font-size:30px; font-family: monospace"">Ela</span>"," ","","exp-sent","Ela","","",""
"","766","html-keyboard-response","369","692375","0.0-3.0-1.302","<span style=""font-size:30px; font-family: monospace"">gosta</span>"," ","","exp-sent","gosta","","",""
"","656","html-keyboard-response","370","693286","0.0-3.0-1.303","<span style=""font-size:30px; font-family: monospace"">de</span>"," ","","exp-sent","de","","",""
"","867","html-keyboard-response","371","694409","0.0-3.0-1.304","<span style=""font-size:30px; font-family: monospace"">estudar</span>"," ","","exp-sent","estudar","","",""
"","924","html-keyboard-response","372","695593","0.0-3.0-1.305","<span style=""font-size:30px; font-family: monospace"">matemática</span>"," ","","exp-sent","matemática","","",""
"","488","html-keyboard-response","373","696333","0.0-3.0-1.306","<span style=""font-size:30px; font-family: monospace"">com</span>"," ","","exp-sent","com","","",""
"","900","html-keyboard-response","374","697484","0.0-3.0-1.307","<span style=""font-size:30px; font-family: monospace"">colegas.</span>"," ","","comp","colegas.","","",""
"","11334","html-keyboard-response","375","709075","0.0-3.0-2.307-0.307","<span style=""font-size:30px; font-family: monospace"">Ela gosta de estudar física?</span>","s","","comp","","Ela gosta de estudar física?","não","false"
"","null","html-keyboard-response","376","710590","0.0-3.0-0.308-0.308","<span style= ""font-size:30px; font-family: monospace"">+</span>","null","fixation","","","","",""
"","14847","html-keyboard-response","377","725701","0.0-3.0-1.308","<span style=""font-size:30px; font-family: monospace"">Ele</span>"," ","","exp-sent","Ele","","",""
"","527","html-keyboard-response","378","726488","0.0-3.0-1.309","<span style=""font-size:30px; font-family: monospace"">é</span>"," ","","exp-sent","é","","",""
"","462","html-keyboard-response","379","727213","0.0-3.0-1.310","<span style=""font-size:30px; font-family: monospace"">um</span>"," ","","exp-sent","um","","",""
"","854","html-keyboard-response","380","728331","0.0-3.0-1.311","<span style=""font-size:30px; font-family: monospace"">pai</span>"," ","","exp-sent","pai","","",""
"","1390","html-keyboard-response","381","729982","0.0-3.0-1.312","<span style=""font-size:30px; font-family: monospace"">ausente</span>"," ","","exp-sent","ausente","","",""
"","475","html-keyboard-response","382","730718","0.0-3.0-1.313","<span style=""font-size:30px; font-family: monospace"">e</span>"," ","","exp-sent","e","","",""
"","718","html-keyboard-response","383","731693","0.0-3.0-1.314","<span style=""font-size:30px; font-family: monospace"">muito</span>"," ","","exp-sent","muito","","",""
"","2037","html-keyboard-response","384","733996","0.0-3.0-1.315","<span style=""font-size:30px; font-family: monospace"">fofoqueiro.</span>"," ","","exp-sent","fofoqueiro.","","",""
"","null","html-keyboard-response","385","735270","0.0-3.0-0.316-0.316","<span style= ""font-size:30px; font-family: monospace"">+</span>","null","fixation","","","","",""
"","1264","html-keyboard-response","386","736800","0.0-3.0-1.316","<span style=""font-size:30px; font-family: monospace"">O</span>"," ","","exp-sent","O","","",""
"","840","html-keyboard-response","387","737894","0.0-3.0-1.317","<span style=""font-size:30px; font-family: monospace"">filho</span>"," ","","exp-sent","filho","","",""
"","535","html-keyboard-response","388","738690","0.0-3.0-1.318","<span style=""font-size:30px; font-family: monospace"">lavou</span>"," ","","exp-sent","lavou","","",""
"","692","html-keyboard-response","389","739643","0.0-3.0-1.319","<span style=""font-size:30px; font-family: monospace"">a</span>"," ","","exp-sent","a","","",""
"","1087","html-keyboard-response","390","740990","0.0-3.0-1.320","<span style=""font-size:30px; font-family: monospace"">roupa</span>"," ","","exp-sent","roupa","","",""
"","764","html-keyboard-response","391","742010","0.0-3.0-1.321","<span style=""font-size:30px; font-family: monospace"">sem</span>"," ","","exp-sent","sem","","",""
"","1037","html-keyboard-response","392","743305","0.0-3.0-1.322","<span style=""font-size:30px; font-family: monospace"">nenhuma</span>"," ","","exp-sent","nenhuma","","",""
"","575","html-keyboard-response","393","744140","0.0-3.0-1.323","<span style=""font-size:30px; font-family: monospace"">ajuda.</span>"," ","","exp-sent","ajuda.","","",""
"","null","html-keyboard-response","394","745400","0.0-3.0-0.324-0.324","<span style= ""font-size:30px; font-family: monospace"">+</span>","null","fixation","","","","",""
"","1338","html-keyboard-response","395","746990","0.0-3.0-1.324","<span style=""font-size:30px; font-family: monospace"">O</span>"," ","","exp-sent","O","","",""
"","1007","html-keyboard-response","396","748257","0.0-3.0-1.325","<span style=""font-size:30px; font-family: monospace"">menino</span>"," ","","exp-sent","menino","","",""
"","862","html-keyboard-response","397","749389","0.0-3.0-1.326","<span style=""font-size:30px; font-family: monospace"">quebrou</span>"," ","","exp-sent","quebrou","","",""
"","590","html-keyboard-response","398","750238","0.0-3.0-1.327","<span style=""font-size:30px; font-family: monospace"">a</span>"," ","","exp-sent","a","","",""
"","773","html-keyboard-response","399","751275","0.0-3.0-1.328","<span style=""font-size:30px; font-family: monospace"">perna</span>"," ","","exp-sent","perna","","",""
"","519","html-keyboard-response","400","752058","0.0-3.0-1.329","<span style=""font-size:30px; font-family: monospace"">nos</span>"," ","","exp-sent","nos","","",""
"","974","html-keyboard-response","401","753303","0.0-3.0-1.330","<span style=""font-size:30px; font-family: monospace"">esportes.</span>"," ","","exp-sent","esportes.","","",""
"","null","html-keyboard-response","402","754578","0.0-3.0-0.331-0.331","<span style= ""font-size:30px; font-family: monospace"">+</span>","null","fixation","","","","",""
"","669","html-keyboard-response","403","755513","0.0-3.0-1.331","<span style=""font-size:30px; font-family: monospace"">Ela</span>"," ","","exp-sent","Ela","","",""
"","832","html-keyboard-response","404","756596","0.0-3.0-1.332","<span style=""font-size:30px; font-family: monospace"">brincou</span>"," ","","exp-sent","brincou","","",""
"","868","html-keyboard-response","405","757718","0.0-3.0-1.333","<span style=""font-size:30px; font-family: monospace"">com</span>"," ","","exp-sent","com","","",""
"","643","html-keyboard-response","406","758629","0.0-3.0-1.334","<span style=""font-size:30px; font-family: monospace"">uma</span>"," ","","exp-sent","uma","","",""
"","766","html-keyboard-response","407","759648","0.0-3.0-1.335","<span style=""font-size:30px; font-family: monospace"">menina</span>"," ","","exp-sent","menina","","",""
"","520","html-keyboard-response","408","760421","0.0-3.0-1.336","<span style=""font-size:30px; font-family: monospace"">da</span>"," ","","exp-sent","da","","",""
"","794","html-keyboard-response","409","761473","0.0-3.0-1.337","<span style=""font-size:30px; font-family: monospace"">turma.</span>"," ","","exp-sent","turma.","","",""
"","null","html-keyboard-response","410","762752","0.0-3.0-0.338-0.338","<span style= ""font-size:30px; font-family: monospace"">+</span>","null","fixation","","","","",""
"","541","html-keyboard-response","411","763552","0.0-3.0-1.338","<span style=""font-size:30px; font-family: monospace"">Ele</span>"," ","","exp-sent","Ele","","",""
"","617","html-keyboard-response","412","764428","0.0-3.0-1.339","<span style=""font-size:30px; font-family: monospace"">esteve</span>"," ","","exp-sent","esteve","","",""
"","655","html-keyboard-response","413","765337","0.0-3.0-1.340","<span style=""font-size:30px; font-family: monospace"">no</span>"," ","","exp-sent","no","","",""
"","868","html-keyboard-response","414","766461","0.0-3.0-1.341","<span style=""font-size:30px; font-family: monospace"">escritório</span>"," ","","exp-sent","escritório","","",""
"","481","html-keyboard-response","415","767195","0.0-3.0-1.342","<span style=""font-size:30px; font-family: monospace"">o</span>"," ","","exp-sent","o","","",""
"","516","html-keyboard-response","416","767976","0.0-3.0-1.343","<span style=""font-size:30px; font-family: monospace"">dia</span>"," ","","exp-sent","dia","","",""
"","897","html-keyboard-response","417","769123","0.0-3.0-1.344","<span style=""font-size:30px; font-family: monospace"">inteiro.</span>"," ","","comp","inteiro.","","",""
"","5376","html-keyboard-response","418","774758","0.0-3.0-2.344-0.344","<span style=""font-size:30px; font-family: monospace"">Ele esteve no parque o dia inteiro?</span>","n","","comp","","Ele esteve no parque o dia inteiro?","não","false"
"","null","html-keyboard-response","419","776280","0.0-3.0-0.345-0.345","<span style= ""font-size:30px; font-family: monospace"">+</span>","null","fixation","","","","",""
"","537","html-keyboard-response","420","777075","0.0-3.0-1.345","<span style=""font-size:30px; font-family: monospace"">O</span>"," ","","exp-sent","O","","",""
"","1401","html-keyboard-response","421","778739","0.0-3.0-1.346","<span style=""font-size:30px; font-family: monospace"">travesseiro</span>"," ","","exp-sent","travesseiro","","",""
"","499","html-keyboard-response","422","779506","0.0-3.0-1.347","<span style=""font-size:30px; font-family: monospace"">era</span>"," ","","exp-sent","era","","",""
"","606","html-keyboard-response","423","780383","0.0-3.0-1.348","<span style=""font-size:30px; font-family: monospace"">muito</span>"," ","","exp-sent","muito","","",""
"","1149","html-keyboard-response","424","781798","0.0-3.0-1.349","<span style=""font-size:30px; font-family: monospace"">macio</span>"," ","","exp-sent","macio","","",""
"","543","html-keyboard-response","425","782596","0.0-3.0-1.350","<span style=""font-size:30px; font-family: monospace"">e</span>"," ","","exp-sent","e","","",""
"","1996","html-keyboard-response","426","784849","0.0-3.0-1.351","<span style=""font-size:30px; font-family: monospace"">confortável.</span>"," ","","exp-sent","confortável.","","",""
"","null","html-keyboard-response","427","786113","0.0-3.0-0.352-0.352","<span style= ""font-size:30px; font-family: monospace"">+</span>","null","fixation","","","","",""
"","850","html-keyboard-response","428","787217","0.0-3.0-1.352","<span style=""font-size:30px; font-family: monospace"">Hoje</span>"," ","","exp-sent","Hoje","","",""
"","729","html-keyboard-response","429","788200","0.0-3.0-1.353","<span style=""font-size:30px; font-family: monospace"">a</span>"," ","","exp-sent","a","","",""
"","1099","html-keyboard-response","430","789565","0.0-3.0-1.354","<span style=""font-size:30px; font-family: monospace"">atendente</span>"," ","","exp-sent","atendente","","",""
"","676","html-keyboard-response","431","790508","0.0-3.0-1.355","<span style=""font-size:30px; font-family: monospace"">estava</span>"," ","","exp-sent","estava","","",""
"","1524","html-keyboard-response","432","792291","0.0-3.0-1.356","<span style=""font-size:30px; font-family: monospace"">furiosa</span>"," ","","exp-sent","furiosa","","",""
"","527","html-keyboard-response","433","793082","0.0-3.0-1.357","<span style=""font-size:30px; font-family: monospace"">com</span>"," ","","exp-sent","com","","",""
"","717","html-keyboard-response","434","794054","0.0-3.0-1.358","<span style=""font-size:30px; font-family: monospace"">o</span>"," ","","exp-sent","o","","",""
"","1271","html-keyboard-response","435","795588","0.0-3.0-1.359","<span style=""font-size:30px; font-family: monospace"">cliente.</span>"," ","","exp-sent","cliente.","","",""
"","null","html-keyboard-response","436","796859","0.0-3.0-0.360-0.360","<span style= ""font-size:30px; font-family: monospace"">+</span>","null","fixation","","","","",""
"","1162","html-keyboard-response","437","798275","0.0-3.0-1.360","<span style=""font-size:30px; font-family: monospace"">O</span>"," ","","exp-sent","O","","",""
"","920","html-keyboard-response","438","799458","0.0-3.0-1.361","<span style=""font-size:30px; font-family: monospace"">vizinho</span>"," ","","exp-sent","vizinho","","",""
"","455","html-keyboard-response","439","800169","0.0-3.0-1.362","<span style=""font-size:30px; font-family: monospace"">é</span>"," ","","exp-sent","é","","",""
"","476","html-keyboard-response","440","800905","0.0-3.0-1.363","<span style=""font-size:30px; font-family: monospace"">um</span>"," ","","exp-sent","um","","",""
"","1786","html-keyboard-response","441","802950","0.0-3.0-1.364","<span style=""font-size:30px; font-family: monospace"">arquiteto</span>"," ","","exp-sent","arquiteto","","",""
"","904","html-keyboard-response","442","804124","0.0-3.0-1.365","<span style=""font-size:30px; font-family: monospace"">muito</span>"," ","","exp-sent","muito","","",""
"","2485","html-keyboard-response","443","806859","0.0-3.0-1.366","<span style=""font-size:30px; font-family: monospace"">excêntrico.</span>"," ","","exp-sent","excêntrico.","","",""
"","null","html-keyboard-response","444","808133","0.0-3.0-0.367-0.367","<span style= ""font-size:30px; font-family: monospace"">+</span>","null","fixation","","","","",""
"","609","html-keyboard-response","445","809000","0.0-3.0-1.367","<span style=""font-size:30px; font-family: monospace"">A</span>"," ","","exp-sent","A","","",""
"","1017","html-keyboard-response","446","810281","0.0-3.0-1.368","<span style=""font-size:30px; font-family: monospace"">nossa</span>"," ","","exp-sent","nossa","","",""
"","470","html-keyboard-response","447","811017","0.0-3.0-1.369","<span style=""font-size:30px; font-family: monospace"">colega</span>"," ","","exp-sent","colega","","",""
"","505","html-keyboard-response","448","811778","0.0-3.0-1.370","<span style=""font-size:30px; font-family: monospace"">foi</span>"," ","","exp-sent","foi","","",""
"","509","html-keyboard-response","449","812547","0.0-3.0-1.371","<span style=""font-size:30px; font-family: monospace"">má</span>"," ","","exp-sent","má","","",""
"","620","html-keyboard-response","450","813423","0.0-3.0-1.372","<span style=""font-size:30px; font-family: monospace"">com</span>"," ","","exp-sent","com","","",""
"","575","html-keyboard-response","451","814255","0.0-3.0-1.373","<span style=""font-size:30px; font-family: monospace"">as</span>"," ","","exp-sent","as","","",""
"","653","html-keyboard-response","452","815172","0.0-3.0-1.374","<span style=""font-size:30px; font-family: monospace"">crianças.</span>"," ","","exp-sent","crianças.","","",""
"","null","html-keyboard-response","453","816437","0.0-3.0-0.375-0.375","<span style= ""font-size:30px; font-family: monospace"">+</span>","null","fixation","","","","",""
"","992","html-keyboard-response","454","817682","0.0-3.0-1.375","<span style=""font-size:30px; font-family: monospace"">Virtudes</span>"," ","","exp-sent","Virtudes","","",""
"","652","html-keyboard-response","455","818598","0.0-3.0-1.376","<span style=""font-size:30px; font-family: monospace"">não</span>"," ","","exp-sent","não","","",""
"","700","html-keyboard-response","456","819552","0.0-3.0-1.377","<span style=""font-size:30px; font-family: monospace"">são</span>"," ","","exp-sent","são","","",""
"","2090","html-keyboard-response","457","821895","0.0-3.0-1.378","<span style=""font-size:30px; font-family: monospace"">preguiça,</span>"," ","","exp-sent","preguiça,","","",""
"","960","html-keyboard-response","458","823120","0.0-3.0-1.379","<span style=""font-size:30px; font-family: monospace"">gula</span>"," ","","exp-sent","gula","","",""
"","643","html-keyboard-response","459","824027","0.0-3.0-1.380","<span style=""font-size:30px; font-family: monospace"">nem</span>"," ","","exp-sent","nem","","",""
"","1613","html-keyboard-response","460","825904","0.0-3.0-1.381","<span style=""font-size:30px; font-family: monospace"">ganância.</span>"," ","","comp","ganância.","","",""
"","5857","html-keyboard-response","461","832015","0.0-3.0-2.381-0.381","<span style=""font-size:30px; font-family: monospace"">Preguiça é uma virtude?</span>","n","","comp","","Preguiça é uma virtude?","não","false"
"","null","html-keyboard-response","462","833535","0.0-3.0-0.382-0.382","<span style= ""font-size:30px; font-family: monospace"">+</span>","null","fixation","","","","",""
"","3355","html-keyboard-response","463","837151","0.0-3.0-1.382","<span style=""font-size:30px; font-family: monospace"">Minha</span>"," ","","exp-sent","Minha","","",""
"","1915","html-keyboard-response","464","839320","0.0-3.0-1.383","<span style=""font-size:30px; font-family: monospace"">prima</span>"," ","","exp-sent","prima","","",""
"","860","html-keyboard-response","465","840439","0.0-3.0-1.384","<span style=""font-size:30px; font-family: monospace"">trocou</span>"," ","","exp-sent","trocou","","",""
"","569","html-keyboard-response","466","841267","0.0-3.0-1.385","<span style=""font-size:30px; font-family: monospace"">a</span>"," ","","exp-sent","a","","",""
"","871","html-keyboard-response","467","842402","0.0-3.0-1.386","<span style=""font-size:30px; font-family: monospace"">tela</span>"," ","","exp-sent","tela","","",""
"","423","html-keyboard-response","468","843088","0.0-3.0-1.387","<span style=""font-size:30px; font-family: monospace"">do</span>"," ","","exp-sent","do","","",""
"","1329","html-keyboard-response","469","844683","0.0-3.0-1.388","<span style=""font-size:30px; font-family: monospace"">celular</span>"," ","","exp-sent","celular","","",""
"","905","html-keyboard-response","470","845847","0.0-3.0-1.389","<span style=""font-size:30px; font-family: monospace"">duas</span>"," ","","exp-sent","duas","","",""
"","909","html-keyboard-response","471","847011","0.0-3.0-1.390","<span style=""font-size:30px; font-family: monospace"">vezes.</span>"," ","","exp-sent","vezes.","","",""
"","null","html-keyboard-response","472","848273","0.0-3.0-0.391-0.391","<span style= ""font-size:30px; font-family: monospace"">+</span>","null","fixation","","","","",""
"","62","html-keyboard-response","473","848587","0.0-3.0-1.391","<span style=""font-size:30px; font-family: monospace"">Agora</span>"," ","","exp-sent","Agora","","",""
"","820","html-keyboard-response","474","849659","0.0-3.0-1.392","<span style=""font-size:30px; font-family: monospace"">a</span>"," ","","exp-sent","a","","",""
"","649","html-keyboard-response","475","850559","0.0-3.0-1.393","<span style=""font-size:30px; font-family: monospace"">minha</span>"," ","","exp-sent","minha","","",""
"","1224","html-keyboard-response","476","852038","0.0-3.0-1.394","<span style=""font-size:30px; font-family: monospace"">única</span>"," ","","exp-sent","única","","",""
"","975","html-keyboard-response","477","853280","0.0-3.0-1.395","<span style=""font-size:30px; font-family: monospace"">preocupação</span>"," ","","exp-sent","preocupação","","",""
"","612","html-keyboard-response","478","854147","0.0-3.0-1.396","<span style=""font-size:30px; font-family: monospace"">é</span>"," ","","exp-sent","é","","",""
"","733","html-keyboard-response","479","855141","0.0-3.0-1.397","<span style=""font-size:30px; font-family: monospace"">um</span>"," ","","exp-sent","um","","",""
"","899","html-keyboard-response","480","856300","0.0-3.0-1.398","<span style=""font-size:30px; font-family: monospace"">descanso</span>"," ","","exp-sent","descanso","","",""
"","688","html-keyboard-response","481","857240","0.0-3.0-1.399","<span style=""font-size:30px; font-family: monospace"">tranquilo.</span>"," ","","exp-sent","tranquilo.","","",""
"","null","html-keyboard-response","482","858511","0.0-3.0-0.400-0.400","<span style= ""font-size:30px; font-family: monospace"">+</span>","null","fixation","","","","",""
"","626","html-keyboard-response","483","859394","0.0-3.0-1.400","<span style=""font-size:30px; font-family: monospace"">A</span>"," ","","exp-sent","A","","",""
"","600","html-keyboard-response","484","860253","0.0-3.0-1.401","<span style=""font-size:30px; font-family: monospace"">criança</span>"," ","","exp-sent","criança","","",""
"","960","html-keyboard-response","485","861472","0.0-3.0-1.402","<span style=""font-size:30px; font-family: monospace"">ganhou</span>"," ","","exp-sent","ganhou","","",""
"","449","html-keyboard-response","486","862189","0.0-3.0-1.403","<span style=""font-size:30px; font-family: monospace"">um</span>"," ","","exp-sent","um","","",""
"","749","html-keyboard-response","487","863199","0.0-3.0-1.404","<span style=""font-size:30px; font-family: monospace"">presente</span>"," ","","exp-sent","presente","","",""
"","1020","html-keyboard-response","488","864471","0.0-3.0-1.405","<span style=""font-size:30px; font-family: monospace"">maravilhoso.</span>"," ","","exp-sent","maravilhoso.","","",""
"","null","html-keyboard-response","489","865735","0.0-3.0-0.406-0.406","<span style= ""font-size:30px; font-family: monospace"">+</span>","null","fixation","","","","",""
"","535","html-keyboard-response","490","866534","0.0-3.0-1.406","<span style=""font-size:30px; font-family: monospace"">Os</span>"," ","","exp-sent","Os","","",""
"","869","html-keyboard-response","491","867667","0.0-3.0-1.407","<span style=""font-size:30px; font-family: monospace"">bichos</span>"," ","","exp-sent","bichos","","",""
"","462","html-keyboard-response","492","868385","0.0-3.0-1.408","<span style=""font-size:30px; font-family: monospace"">têm</span>"," ","","exp-sent","têm","","",""
"","461","html-keyboard-response","493","869109","0.0-3.0-1.409","<span style=""font-size:30px; font-family: monospace"">um</span>"," ","","exp-sent","um","","",""
"","895","html-keyboard-response","494","870259","0.0-3.0-1.410","<span style=""font-size:30px; font-family: monospace"">instinto</span>"," ","","exp-sent","instinto","","",""
"","438","html-keyboard-response","495","870949","0.0-3.0-1.411","<span style=""font-size:30px; font-family: monospace"">de</span>"," ","","exp-sent","de","","",""
"","1565","html-keyboard-response","496","872779","0.0-3.0-1.412","<span style=""font-size:30px; font-family: monospace"">sobrevivência</span>"," ","","exp-sent","sobrevivência","","",""
"","672","html-keyboard-response","497","873707","0.0-3.0-1.413","<span style=""font-size:30px; font-family: monospace"">forte.</span>"," ","","exp-sent","forte.","","",""
"","null","html-keyboard-response","498","874963","0.0-3.0-0.414-0.414","<span style= ""font-size:30px; font-family: monospace"">+</span>","null","fixation","","","","",""
"","769","html-keyboard-response","499","875995","0.0-3.0-1.414","<span style=""font-size:30px; font-family: monospace"">Aquele</span>"," ","","exp-sent","Aquele","","",""
"","1320","html-keyboard-response","500","877582","0.0-3.0-1.415","<span style=""font-size:30px; font-family: monospace"">menino</span>"," ","","exp-sent","menino","","",""
"","562","html-keyboard-response","501","878403","0.0-3.0-1.416","<span style=""font-size:30px; font-family: monospace"">alto</span>"," ","","exp-sent","alto","","",""
"","528","html-keyboard-response","502","879185","0.0-3.0-1.417","<span style=""font-size:30px; font-family: monospace"">é</span>"," ","","exp-sent","é","","",""
"","1490","html-keyboard-response","503","880928","0.0-3.0-1.418","<span style=""font-size:30px; font-family: monospace"">exibido</span>"," ","","exp-sent","exibido","","",""
"","463","html-keyboard-response","504","881654","0.0-3.0-1.419","<span style=""font-size:30px; font-family: monospace"">e</span>"," ","","exp-sent","e","","",""
"","1651","html-keyboard-response","505","883562","0.0-3.0-1.420","<span style=""font-size:30px; font-family: monospace"">sovina.</span>"," ","","comp","sovina.","","",""
"","4690","html-keyboard-response","506","888514","0.0-3.0-2.420-0.420","<span style=""font-size:30px; font-family: monospace"">Aquele menino é humilde?</span>","n","","comp","","Aquele menino é humilde?","não","false"
"","null","html-keyboard-response","507","890025","0.0-3.0-0.421-0.421","<span style= ""font-size:30px; font-family: monospace"">+</span>","null","fixation","","","","",""
"","239","html-keyboard-response","508","890526","0.0-3.0-1.421","<span style=""font-size:30px; font-family: monospace"">No</span>"," ","","exp-sent","No","","",""
"","1166","html-keyboard-response","509","891954","0.0-3.0-1.422","<span style=""font-size:30px; font-family: monospace"">passado</span>"," ","","exp-sent","passado","","",""
"","774","html-keyboard-response","510","892986","0.0-3.0-1.423","<span style=""font-size:30px; font-family: monospace"">houve</span>"," ","","exp-sent","houve","","",""
"","541","html-keyboard-response","511","893783","0.0-3.0-1.424","<span style=""font-size:30px; font-family: monospace"">uma</span>"," ","","exp-sent","uma","","",""
"","1140","html-keyboard-response","512","895176","0.0-3.0-1.425","<span style=""font-size:30px; font-family: monospace"">rebelião</span>"," ","","exp-sent","rebelião","","",""
"","808","html-keyboard-response","513","896243","0.0-3.0-1.426","<span style=""font-size:30px; font-family: monospace"">nesta</span>"," ","","exp-sent","nesta","","",""
"","973","html-keyboard-response","514","897481","0.0-3.0-1.427","<span style=""font-size:30px; font-family: monospace"">cidade.</span>"," ","","exp-sent","cidade.","","",""
"","null","html-keyboard-response","515","898759","0.0-3.0-0.428-0.428","<span style= ""font-size:30px; font-family: monospace"">+</span>","null","fixation","","","","",""
"","980","html-keyboard-response","516","899997","0.0-3.0-1.428","<span style=""font-size:30px; font-family: monospace"">Ele</span>"," ","","exp-sent","Ele","","",""
"","1081","html-keyboard-response","517","901343","0.0-3.0-1.429","<span style=""font-size:30px; font-family: monospace"">fundou</span>"," ","","exp-sent","fundou","","",""
"","596","html-keyboard-response","518","902195","0.0-3.0-1.430","<span style=""font-size:30px; font-family: monospace"">uma</span>"," ","","exp-sent","uma","","",""
"","1182","html-keyboard-response","519","903632","0.0-3.0-1.431","<span style=""font-size:30px; font-family: monospace"">empresa</span>"," ","","exp-sent","empresa","","",""
"","886","html-keyboard-response","520","904770","0.0-3.0-1.432","<span style=""font-size:30px; font-family: monospace"">privada</span>"," ","","exp-sent","privada","","",""
"","610","html-keyboard-response","521","905646","0.0-3.0-1.433","<span style=""font-size:30px; font-family: monospace"">sem</span>"," ","","exp-sent","sem","","",""
"","1187","html-keyboard-response","522","907085","0.0-3.0-1.434","<span style=""font-size:30px; font-family: monospace"">ajuda.</span>"," ","","exp-sent","ajuda.","","",""
"","null","html-keyboard-response","523","908354","0.0-3.0-0.435-0.435","<span style= ""font-size:30px; font-family: monospace"">+</span>","null","fixation","","","","",""
"","75","html-keyboard-response","524","908688","0.0-3.0-1.435","<span style=""font-size:30px; font-family: monospace"">As</span>"," ","","exp-sent","As","","",""
"","944","html-keyboard-response","525","909890","0.0-3.0-1.436","<span style=""font-size:30px; font-family: monospace"">meninas</span>"," ","","exp-sent","meninas","","",""
"","1533","html-keyboard-response","526","911674","0.0-3.0-1.437","<span style=""font-size:30px; font-family: monospace"">encontraram</span>"," ","","exp-sent","encontraram","","",""
"","517","html-keyboard-response","527","912448","0.0-3.0-1.438","<span style=""font-size:30px; font-family: monospace"">um</span>"," ","","exp-sent","um","","",""
"","1246","html-keyboard-response","528","913957","0.0-3.0-1.439","<span style=""font-size:30px; font-family: monospace"">rato</span>"," ","","exp-sent","rato","","",""
"","882","html-keyboard-response","529","915104","0.0-3.0-1.440","<span style=""font-size:30px; font-family: monospace"">dentro</span>"," ","","exp-sent","dentro","","",""
"","449","html-keyboard-response","530","915808","0.0-3.0-1.441","<span style=""font-size:30px; font-family: monospace"">de</span>"," ","","exp-sent","de","","",""
"","1376","html-keyboard-response","531","917436","0.0-3.0-1.442","<span style=""font-size:30px; font-family: monospace"">casa.</span>"," ","","exp-sent","casa.","","",""
"","null","html-keyboard-response","532","918695","0.0-3.0-0.443-0.443","<span style= ""font-size:30px; font-family: monospace"">+</span>","null","fixation","","","","",""
"","661","html-keyboard-response","533","919615","0.0-3.0-1.443","<span style=""font-size:30px; font-family: monospace"">O</span>"," ","","exp-sent","O","","",""
"","1030","html-keyboard-response","534","920917","0.0-3.0-1.444","<span style=""font-size:30px; font-family: monospace"">texto</span>"," ","","exp-sent","texto","","",""
"","810","html-keyboard-response","535","921988","0.0-3.0-1.445","<span style=""font-size:30px; font-family: monospace"">tinha</span>"," ","","exp-sent","tinha","","",""
"","1118","html-keyboard-response","536","923362","0.0-3.0-1.446","<span style=""font-size:30px; font-family: monospace"">ideias</span>"," ","","exp-sent","ideias","","",""
"","840","html-keyboard-response","537","924461","0.0-3.0-1.447","<span style=""font-size:30px; font-family: monospace"">vagas</span>"," ","","exp-sent","vagas","","",""
"","658","html-keyboard-response","538","925380","0.0-3.0-1.448","<span style=""font-size:30px; font-family: monospace"">e</span>"," ","","exp-sent","e","","",""
"","1314","html-keyboard-response","539","926951","0.0-3.0-1.449","<span style=""font-size:30px; font-family: monospace"">confusas.</span>"," ","","exp-sent","confusas.","","",""
"","null","html-keyboard-response","540","928205","0.0-3.0-0.450-0.450","<span style= ""font-size:30px; font-family: monospace"">+</span>","null","fixation","","","","",""
"","72","html-keyboard-response","541","928542","0.0-3.0-1.450","<span style=""font-size:30px; font-family: monospace"">As</span>"," ","","exp-sent","As","","",""
"","861","html-keyboard-response","542","929666","0.0-3.0-1.451","<span style=""font-size:30px; font-family: monospace"">crianças</span>"," ","","exp-sent","crianças","","",""
"","745","html-keyboard-response","543","930671","0.0-3.0-1.452","<span style=""font-size:30px; font-family: monospace"">viram</span>"," ","","exp-sent","viram","","",""
"","497","html-keyboard-response","544","931431","0.0-3.0-1.453","<span style=""font-size:30px; font-family: monospace"">a</span>"," ","","exp-sent","a","","",""
"","1146","html-keyboard-response","545","932833","0.0-3.0-1.454","<span style=""font-size:30px; font-family: monospace"">acrobata</span>"," ","","exp-sent","acrobata","","",""
"","1023","html-keyboard-response","546","934110","0.0-3.0-1.455","<span style=""font-size:30px; font-family: monospace"">talentosa</span>"," ","","exp-sent","talentosa","","",""
"","604","html-keyboard-response","547","934973","0.0-3.0-1.456","<span style=""font-size:30px; font-family: monospace"">no</span>"," ","","exp-sent","no","","",""
"","1133","html-keyboard-response","548","936357","0.0-3.0-1.457","<span style=""font-size:30px; font-family: monospace"">circo.</span>"," ","","comp","circo.","","",""
"","6709","html-keyboard-response","549","943331","0.0-3.0-2.457-0.457","<span style=""font-size:30px; font-family: monospace"">As crianças viram o palhaço no circo?</span>","n","","comp","","As crianças viram o palhaço no circo?","não","false"
"","null","html-keyboard-response","550","944848","0.0-3.0-0.458-0.458","<span style= ""font-size:30px; font-family: monospace"">+</span>","null","fixation","","","","",""
"","1902","html-keyboard-response","551","947014","0.0-3.0-1.458","<span style=""font-size:30px; font-family: monospace"">Preciso</span>"," ","","exp-sent","Preciso","","",""
"","616","html-keyboard-response","552","947890","0.0-3.0-1.459","<span style=""font-size:30px; font-family: monospace"">de</span>"," ","","exp-sent","de","","",""
"","567","html-keyboard-response","553","948716","0.0-3.0-1.460","<span style=""font-size:30px; font-family: monospace"">um</span>"," ","","exp-sent","um","","",""
"","1254","html-keyboard-response","554","950224","0.0-3.0-1.461","<span style=""font-size:30px; font-family: monospace"">relatório</span>"," ","","exp-sent","relatório","","",""
"","904","html-keyboard-response","555","951382","0.0-3.0-1.462","<span style=""font-size:30px; font-family: monospace"">oficial</span>"," ","","exp-sent","oficial","","",""
"","648","html-keyboard-response","556","952297","0.0-3.0-1.463","<span style=""font-size:30px; font-family: monospace"">para</span>"," ","","exp-sent","para","","",""
"","1285","html-keyboard-response","557","953844","0.0-3.0-1.464","<span style=""font-size:30px; font-family: monospace"">amanhã.</span>"," ","","exp-sent","amanhã.","","",""
"","null","html-keyboard-response","558","955111","0.0-3.0-0.465-0.465","<span style= ""font-size:30px; font-family: monospace"">+</span>","null","fixation","","","","",""
"","881","html-keyboard-response","559","956255","0.0-3.0-1.465","<span style=""font-size:30px; font-family: monospace"">Ele</span>"," ","","exp-sent","Ele","","",""
"","1092","html-keyboard-response","560","957599","0.0-3.0-1.466","<span style=""font-size:30px; font-family: monospace"">viu</span>"," ","","exp-sent","viu","","",""
"","923","html-keyboard-response","561","958774","0.0-3.0-1.467","<span style=""font-size:30px; font-family: monospace"">um</span>"," ","","exp-sent","um","","",""
"","1263","html-keyboard-response","562","960292","0.0-3.0-1.468","<span style=""font-size:30px; font-family: monospace"">inseto</span>"," ","","exp-sent","inseto","","",""
"","1389","html-keyboard-response","563","961944","0.0-3.0-1.469","<span style=""font-size:30px; font-family: monospace"">marrom</span>"," ","","exp-sent","marrom","","",""
"","577","html-keyboard-response","564","962774","0.0-3.0-1.470","<span style=""font-size:30px; font-family: monospace"">na</span>"," ","","exp-sent","na","","",""
"","1551","html-keyboard-response","565","964588","0.0-3.0-1.471","<span style=""font-size:30px; font-family: monospace"">parede.</span>"," ","","exp-sent","parede.","","",""
"","null","html-keyboard-response","566","965857","0.0-3.0-0.472-0.472","<span style= ""font-size:30px; font-family: monospace"">+</span>","null","fixation","","","","",""
"","794","html-keyboard-response","567","966913","0.0-3.0-1.472","<span style=""font-size:30px; font-family: monospace"">O</span>"," ","","exp-sent","O","","",""
"","922","html-keyboard-response","568","968095","0.0-3.0-1.473","<span style=""font-size:30px; font-family: monospace"">avô</span>"," ","","exp-sent","avô","","",""
"","859","html-keyboard-response","569","969215","0.0-3.0-1.474","<span style=""font-size:30px; font-family: monospace"">fez</span>"," ","","exp-sent","fez","","",""
"","826","html-keyboard-response","570","970297","0.0-3.0-1.475","<span style=""font-size:30px; font-family: monospace"">uma</span>"," ","","exp-sent","uma","","",""
"","1412","html-keyboard-response","571","971962","0.0-3.0-1.476","<span style=""font-size:30px; font-family: monospace"">lista</span>"," ","","exp-sent","lista","","",""
"","1298","html-keyboard-response","572","973528","0.0-3.0-1.477","<span style=""font-size:30px; font-family: monospace"">de</span>"," ","","exp-sent","de","","",""
"","1193","html-keyboard-response","573","974979","0.0-3.0-1.478","<span style=""font-size:30px; font-family: monospace"">compras</span>"," ","","exp-sent","compras","","",""
"","476","html-keyboard-response","574","975718","0.0-3.0-1.479","<span style=""font-size:30px; font-family: monospace"">do</span>"," ","","exp-sent","do","","",""
"","805","html-keyboard-response","575","976790","0.0-3.0-1.480","<span style=""font-size:30px; font-family: monospace"">mercado.</span>"," ","","exp-sent","mercado.","","",""
"","null","html-keyboard-response","576","978055","0.0-3.0-0.481-0.481","<span style= ""font-size:30px; font-family: monospace"">+</span>","null","fixation","","","","",""
"","668","html-keyboard-response","577","978982","0.0-3.0-1.481","<span style=""font-size:30px; font-family: monospace"">As</span>"," ","","exp-sent","As","","",""
"","1323","html-keyboard-response","578","980569","0.0-3.0-1.482","<span style=""font-size:30px; font-family: monospace"">pessoas</span>"," ","","exp-sent","pessoas","","",""
"","494","html-keyboard-response","579","981323","0.0-3.0-1.483","<span style=""font-size:30px; font-family: monospace"">não</span>"," ","","exp-sent","não","","",""
"","824","html-keyboard-response","580","982407","0.0-3.0-1.484","<span style=""font-size:30px; font-family: monospace"">enviam</span>"," ","","exp-sent","enviam","","",""
"","1219","html-keyboard-response","581","983881","0.0-3.0-1.485","<span style=""font-size:30px; font-family: monospace"">telegrama</span>"," ","","exp-sent","telegrama","","",""
"","455","html-keyboard-response","582","984587","0.0-3.0-1.486","<span style=""font-size:30px; font-family: monospace"">nos</span>"," ","","exp-sent","nos","","",""
"","499","html-keyboard-response","583","985340","0.0-3.0-1.487","<span style=""font-size:30px; font-family: monospace"">dias</span>"," ","","exp-sent","dias","","",""
