"view_history","rt","trial_type","trial_index","time_elapsed","internal_node_id","stimulus","response","trial_part","word","question","answer","trial","accuracy"
"[{""page_index"":0,""viewing_time"":18006},{""page_index"":1,""viewing_time"":7695}]","25701","instructions","0","25705","0.0-0.0","","","","","","","",""
"","null","html-keyboard-response","1","26832","0.0-1.0-0.0-0.0","<span style= ""font-size:30px; font-family: monospace"">+</span>","null","fixation","","","","",""
"","1299","audio-keyboard-response","2","31012","0.0-1.0-1.0","../audio/prac-question-1-1.mp3"," ","","O","","","",""
"","1160","audio-keyboard-response","3","32528","0.0-1.0-1.1","../audio/prac-question-1-2.mp3"," ","","dia","","","",""
"","1400","audio-keyboard-response","4","34265","0.0-1.0-1.2","../audio/prac-question-1-3.mp3"," ","","estará","","","",""
"","1179","audio-keyboard-response","5","35781","0.0-1.0-1.3","../audio/prac-question-1-4.mp3"," ","","cheio","","","",""
"","1069","audio-keyboard-response","6","37174","0.0-1.0-1.4","../audio/prac-question-1-5.mp3"," ","","de","","","",""
"","1400","audio-keyboard-response","7","38922","0.0-1.0-1.5","../audio/prac-question-1-6.mp3"," ","","nuvens","","","",""
"","1171","audio-keyboard-response","8","40432","0.0-1.0-1.6","../audio/prac-question-1-7.mp3"," ","","hoje.","","","",""
"","null","html-keyboard-response","9","41691","0.0-1.0-0.7-0.7","<span style= ""font-size:30px; font-family: monospace"">+</span>","null","fixation","","","","",""
"","1040","audio-keyboard-response","10","43079","0.0-1.0-1.7","../audio/prac-question-2-1.mp3"," ","","A","","","",""
"","1251","audio-keyboard-response","11","44668","0.0-1.0-1.8","../audio/prac-question-2-2.mp3"," ","","caneca","","","",""
"","1320","audio-keyboard-response","12","46339","0.0-1.0-1.9","../audio/prac-question-2-3.mp3"," ","","colorida","","","",""
"","1160","audio-keyboard-response","13","47840","0.0-1.0-1.10","../audio/prac-question-2-4.mp3"," ","","caiu","","","",""
"","891","audio-keyboard-response","14","49072","0.0-1.0-1.11","../audio/prac-question-2-5.mp3"," ","","da","","","",""
"","1259","audio-keyboard-response","15","50662","0.0-1.0-1.12","../audio/prac-question-2-6.mp3"," ","","mesa","","","",""
"","979","audio-keyboard-response","16","51982","0.0-1.0-1.13","../audio/prac-question-2-7.mp3"," ","","de","","","",""
"","1640","audio-keyboard-response","17","53965","0.0-1.0-1.14","../audio/prac-question-2-8.mp3"," ","","jantar.","","","",""
"","5066","html-keyboard-response","18","59287","0.0-1.0-2.14-0.14","<span style=""font-size:25px; font-family: monospace"">A caneca era colorida?</span>","s","","","A caneca era colorida?","null","prac-sent","false"
"[{""page_index"":0,""viewing_time"":5205}]","5205","instructions","19","65005","0.0-2.0","","","","","","","",""
"","null","html-keyboard-response","20","66131","0.0-3.0-0.0-0.0","<span style= ""font-size:30px; font-family: monospace"">+</span>","null","fixation","","","","",""
"","1101","audio-keyboard-response","21","67591","0.0-3.0-1.0","../audio/63-1-fem.mp3"," ","","A","","","",""
"","1392","audio-keyboard-response","22","69320","0.0-3.0-1.1","../audio/63-2-fem.mp3"," ","","chuva","","","",""
"","1139","audio-keyboard-response","23","70810","0.0-3.0-1.2","../audio/63-3-fem.mp3"," ","","entrou","","","",""
"","960","audio-keyboard-response","24","72099","0.0-3.0-1.3","../audio/63-4-fem.mp3"," ","","pela","","","",""
"","1499","audio-keyboard-response","25","73938","0.0-3.0-1.4","../audio/63-5-fem.mp3"," ","","abertura","","","",""
"","891","audio-keyboard-response","26","75161","0.0-3.0-1.5","../audio/63-6-fem.mp3"," ","","na","","","",""
"","1531","audio-keyboard-response","27","77038","0.0-3.0-1.6","../audio/63-7-fem.mp3"," ","","janela.","","","",""
"","null","html-keyboard-response","28","78311","0.0-3.0-0.7-0.7","<span style= ""font-size:30px; font-family: monospace"">+</span>","null","fixation","","","","",""
"","1171","audio-keyboard-response","29","79829","0.0-3.0-1.7","../audio/61-1-fem.mp3"," ","","Aquele","","","",""
"","1208","audio-keyboard-response","30","81366","0.0-3.0-1.8","../audio/61-2-fem.mp3"," ","","senhor","","","",""
"","771","audio-keyboard-response","31","82458","0.0-3.0-1.9","../audio/61-3-fem.mp3"," ","","é","","","",""
"","1229","audio-keyboard-response","32","84020","0.0-3.0-1.10","../audio/61-4-fem.mp3"," ","","muito","","","",""
"","1411","audio-keyboard-response","33","85774","0.0-3.0-1.11","../audio/61-5-fem.mp3"," ","","sovina","","","",""
"","909","audio-keyboard-response","34","87021","0.0-3.0-1.12","../audio/61-6-fem.mp3"," ","","e","","","",""
"","1960","audio-keyboard-response","35","89284","0.0-3.0-1.13","../audio/61-7-fem.mp3"," ","","inflexível.","","","",""
"","null","html-keyboard-response","36","90570","0.0-3.0-0.14-0.14","<span style= ""font-size:30px; font-family: monospace"">+</span>","null","fixation","","","","",""
"","1829","audio-keyboard-response","37","92742","0.0-3.0-1.14","../audio/62-1-masc.mp3"," ","","As","","","",""
"","1491","audio-keyboard-response","38","94594","0.0-3.0-1.15","../audio/62-2-masc.mp3"," ","","artesãs","","","",""
"","1059","audio-keyboard-response","39","95973","0.0-3.0-1.16","../audio/62-3-masc.mp3"," ","","gostam","","","",""
"","851","audio-keyboard-response","40","97153","0.0-3.0-1.17","../audio/62-4-masc.mp3"," ","","de","","","",""
"","1739","audio-keyboard-response","41","99252","0.0-3.0-1.18","../audio/62-5-masc.mp3"," ","","maquiagem","","","",""
"","760","audio-keyboard-response","42","100420","0.0-3.0-1.19","../audio/62-6-masc.mp3"," ","","e","","","",""
"","800","audio-keyboard-response","43","101580","0.0-3.0-1.20","../audio/62-7-masc.mp3"," ","","de","","","",""
"","1259","audio-keyboard-response","44","103176","0.0-3.0-1.21","../audio/62-8-masc.mp3"," ","","crochê.","","","",""
"","null","html-keyboard-response","45","104449","0.0-3.0-0.22-0.22","<span style= ""font-size:30px; font-family: monospace"">+</span>","null","fixation","","","","",""
"","851","audio-keyboard-response","46","105655","0.0-3.0-1.22","../audio/64-1-masc.mp3"," ","","O","","","",""
"","1021","audio-keyboard-response","47","106994","0.0-3.0-1.23","../audio/64-2-masc.mp3"," ","","dia","","","",""
"","1072","audio-keyboard-response","48","108392","0.0-3.0-1.24","../audio/64-3-masc.mp3"," ","","começou","","","",""
"","771","audio-keyboard-response","49","109455","0.0-3.0-1.25","../audio/64-4-masc.mp3"," ","","com","","","",""
"","1280","audio-keyboard-response","50","111079","0.0-3.0-1.26","../audio/64-5-masc.mp3"," ","","garoa","","","",""
"","1341","audio-keyboard-response","51","112744","0.0-3.0-1.27","../audio/64-6-masc.mp3"," ","","gelada","","","",""
"","829","audio-keyboard-response","52","113895","0.0-3.0-1.28","../audio/64-7-masc.mp3"," ","","e","","","",""
"","2021","audio-keyboard-response","53","116235","0.0-3.0-1.29","../audio/64-8-masc.mp3"," ","","leve.","","","",""
"","null","html-keyboard-response","54","117510","0.0-3.0-0.30-0.30","<span style= ""font-size:30px; font-family: monospace"">+</span>","null","fixation","","","","",""
"","880","audio-keyboard-response","55","118726","0.0-3.0-1.30","../audio/65-1-fem.mp3"," ","","O","","","",""
"","1381","audio-keyboard-response","56","120469","0.0-3.0-1.31","../audio/65-2-fem.mp3"," ","","fantasma","","","",""
"","1059","audio-keyboard-response","57","121857","0.0-3.0-1.32","../audio/65-3-fem.mp3"," ","","veio","","","",""
"","920","audio-keyboard-response","58","123100","0.0-3.0-1.33","../audio/65-4-fem.mp3"," ","","da","","","",""
"","1749","audio-keyboard-response","59","125183","0.0-3.0-1.34","../audio/65-5-fem.mp3"," ","","escuridão","","","",""
"","779","audio-keyboard-response","60","126334","0.0-3.0-1.35","../audio/65-6-fem.mp3"," ","","do","","","",""
"","1659","audio-keyboard-response","61","128328","0.0-3.0-1.36","../audio/65-7-fem.mp3"," ","","armário.","","","",""
"","5195","html-keyboard-response","62","133783","0.0-3.0-2.36-0.36","<span style=""font-size:25px; font-family: monospace"">O fantasma veio da escuridão do armário?</span>","s","","","O fantasma veio da escuridão do armário?","null","exp-sent","false"
"","null","html-keyboard-response","63","135301","0.0-3.0-0.37-0.37","<span style= ""font-size:30px; font-family: monospace"">+</span>","null","fixation","","","","",""
"","1061","audio-keyboard-response","64","136711","0.0-3.0-1.37","../audio/72-1-masc.mp3"," ","","A","","","",""
"","1480","audio-keyboard-response","65","138525","0.0-3.0-1.38","../audio/72-2-masc.mp3"," ","","vencedora","","","",""
"","1149","audio-keyboard-response","66","140014","0.0-3.0-1.39","../audio/72-3-masc.mp3"," ","","recebeu","","","",""
"","821","audio-keyboard-response","67","141153","0.0-3.0-1.40","../audio/72-4-masc.mp3"," ","","um","","","",""
"","1181","audio-keyboard-response","68","142670","0.0-3.0-1.41","../audio/72-5-masc.mp3"," ","","prêmio","","","",""
"","899","audio-keyboard-response","69","143893","0.0-3.0-1.42","../audio/72-6-masc.mp3"," ","","em","","","",""
"","1741","audio-keyboard-response","70","145962","0.0-3.0-1.43","../audio/72-7-masc.mp3"," ","","dinheiro.","","","",""
"","null","html-keyboard-response","71","147231","0.0-3.0-0.44-0.44","<span style= ""font-size:30px; font-family: monospace"">+</span>","null","fixation","","","","",""
"","1171","audio-keyboard-response","72","148762","0.0-3.0-1.44","../audio/74-1-fem.mp3"," ","","Este","","","",""
"","1379","audio-keyboard-response","73","150490","0.0-3.0-1.45","../audio/74-2-fem.mp3"," ","","emprego","","","",""
"","752","audio-keyboard-response","74","151555","0.0-3.0-1.46","../audio/74-3-fem.mp3"," ","","é","","","",""
"","1141","audio-keyboard-response","75","153039","0.0-3.0-1.47","../audio/74-4-fem.mp3"," ","","muito","","","",""
"","1699","audio-keyboard-response","76","155083","0.0-3.0-1.48","../audio/74-5-fem.mp3"," ","","cansativo","","","",""
"","749","audio-keyboard-response","77","156181","0.0-3.0-1.49","../audio/74-6-fem.mp3"," ","","a","","","",""
"","1179","audio-keyboard-response","78","157701","0.0-3.0-1.50","../audio/74-7-fem.mp3"," ","","longo","","","",""
"","1459","audio-keyboard-response","79","159496","0.0-3.0-1.51","../audio/74-8-fem.mp3"," ","","prazo.","","","",""
"","null","html-keyboard-response","80","160760","0.0-3.0-0.52-0.52","<span style= ""font-size:30px; font-family: monospace"">+</span>","null","fixation","","","","",""
"","789","audio-keyboard-response","81","161896","0.0-3.0-1.52","../audio/73-1-masc.mp3"," ","","O","","","",""
"","1109","audio-keyboard-response","82","163334","0.0-3.0-1.53","../audio/73-2-masc.mp3"," ","","cliente","","","",""
"","709","audio-keyboard-response","83","164364","0.0-3.0-1.54","../audio/73-3-masc.mp3"," ","","era","","","",""
"","832","audio-keyboard-response","84","165521","0.0-3.0-1.55","../audio/73-4-masc.mp3"," ","","um","","","",""
"","941","audio-keyboard-response","85","166798","0.0-3.0-1.56","../audio/73-5-masc.mp3"," ","","homem","","","",""
"","1160","audio-keyboard-response","86","168285","0.0-3.0-1.57","../audio/73-6-masc.mp3"," ","","muito","","","",""
"","1440","audio-keyboard-response","87","170065","0.0-3.0-1.58","../audio/73-7-masc.mp3"," ","","educado.","","","",""
"","null","html-keyboard-response","88","171327","0.0-3.0-0.59-0.59","<span style= ""font-size:30px; font-family: monospace"">+</span>","null","fixation","","","","",""
"","1160","audio-keyboard-response","89","172833","0.0-3.0-1.59","../audio/71-1-fem.mp3"," ","","Minhas","","","",""
"","1080","audio-keyboard-response","90","174241","0.0-3.0-1.60","../audio/71-2-fem.mp3"," ","","comidas","","","",""
"","1309","audio-keyboard-response","91","175903","0.0-3.0-1.61","../audio/71-3-fem.mp3"," ","","favoritas","","","",""
"","1011","audio-keyboard-response","92","177243","0.0-3.0-1.62","../audio/71-4-fem.mp3"," ","","são","","","",""
"","1240","audio-keyboard-response","93","178830","0.0-3.0-1.63","../audio/71-5-fem.mp3"," ","","morango","","","",""
"","1072","audio-keyboard-response","94","180239","0.0-3.0-1.64","../audio/71-6-fem.mp3"," ","","e","","","",""
"","1181","audio-keyboard-response","95","181746","0.0-3.0-1.65","../audio/71-7-fem.mp3"," ","","uva.","","","",""
"","null","html-keyboard-response","96","183008","0.0-3.0-0.66-0.66","<span style= ""font-size:30px; font-family: monospace"">+</span>","null","fixation","","","","",""
"","960","audio-keyboard-response","97","184322","0.0-3.0-1.66","../audio/75-1-fem.mp3"," ","","Só","","","",""
"","1251","audio-keyboard-response","98","185910","0.0-3.0-1.67","../audio/75-2-fem.mp3"," ","","existe","","","",""
"","880","audio-keyboard-response","99","187126","0.0-3.0-1.68","../audio/75-3-fem.mp3"," ","","uma","","","",""
"","1069","audio-keyboard-response","100","188530","0.0-3.0-1.69","../audio/75-4-fem.mp3"," ","","pessoa","","","",""
"","1371","audio-keyboard-response","101","190238","0.0-3.0-1.70","../audio/75-5-fem.mp3"," ","","canhota","","","",""
"","1120","audio-keyboard-response","102","191686","0.0-3.0-1.71","../audio/75-6-fem.mp3"," ","","nesta","","","",""
"","1400","audio-keyboard-response","103","193414","0.0-3.0-1.72","../audio/75-7-fem.mp3"," ","","cidade.","","","",""
"","6580","html-keyboard-response","104","200257","0.0-3.0-2.72-0.72","<span style=""font-size:25px; font-family: monospace"">Só existe uma pessoa canhota na cidade?</span>","n","","","Só existe uma pessoa canhota na cidade?","null","exp-sent","false"
"","null","html-keyboard-response","105","201771","0.0-3.0-0.73-0.73","<span style= ""font-size:30px; font-family: monospace"">+</span>","null","fixation","","","","",""
"","1000","audio-keyboard-response","106","203106","0.0-3.0-1.73","../audio/13-1-masc.mp3"," ","","Para","","","",""
"","861","audio-keyboard-response","107","204304","0.0-3.0-1.74","../audio/13-2-masc.mp3"," ","","mim","","","",""
"","771","audio-keyboard-response","108","205401","0.0-3.0-1.75","../audio/13-3-masc.mp3"," ","","é","","","",""
"","1021","audio-keyboard-response","109","206753","0.0-3.0-1.76","../audio/13-4-masc.mp3"," ","","muito","","","",""
"","1069","audio-keyboard-response","110","208152","0.0-3.0-1.77","../audio/13-5-masc.mp3"," ","","difícil","","","",""
"","1251","audio-keyboard-response","111","209743","0.0-3.0-1.78","../audio/13-6-masc.mp3"," ","","acordar","","","",""
"","1219","audio-keyboard-response","112","211290","0.0-3.0-1.79","../audio/13-7-masc.mp3"," ","","cedo.","","","",""
"","null","html-keyboard-response","113","212558","0.0-3.0-0.80-0.80","<span style= ""font-size:30px; font-family: monospace"">+</span>","null","fixation","","","","",""
"","389","audio-keyboard-response","114","213343","0.0-3.0-1.80","../audio/14-1-masc.mp3"," ","","O","","","",""
"","891","audio-keyboard-response","115","214579","0.0-3.0-1.81","../audio/14-2-masc.mp3"," ","","cachorro","","","",""
"","731","audio-keyboard-response","116","215624","0.0-3.0-1.82","../audio/14-3-masc.mp3"," ","","é","","","",""
"","1000","audio-keyboard-response","117","216955","0.0-3.0-1.83","../audio/14-4-masc.mp3"," ","","muito","","","",""
"","1040","audio-keyboard-response","118","218329","0.0-3.0-1.84","../audio/14-5-masc.mp3"," ","","fiel","","","",""
"","771","audio-keyboard-response","119","219421","0.0-3.0-1.85","../audio/14-6-masc.mp3"," ","","a","","","",""
"","1059","audio-keyboard-response","120","220805","0.0-3.0-1.86","../audio/14-7-masc.mp3"," ","","seus","","","",""
"","1291","audio-keyboard-response","121","222441","0.0-3.0-1.87","../audio/14-8-masc.mp3"," ","","donos.","","","",""
"","null","html-keyboard-response","122","223712","0.0-3.0-0.88-0.88","<span style= ""font-size:30px; font-family: monospace"">+</span>","null","fixation","","","","",""
"","701","audio-keyboard-response","123","224791","0.0-3.0-1.88","../audio/12-1-masc.mp3"," ","","O","","","",""
"","808","audio-keyboard-response","124","225923","0.0-3.0-1.89","../audio/12-2-masc.mp3"," ","","dia","","","",""
"","939","audio-keyboard-response","125","227207","0.0-3.0-1.90","../audio/12-3-masc.mp3"," ","","estava","","","",""
"","1069","audio-keyboard-response","126","228603","0.0-3.0-1.91","../audio/12-4-masc.mp3"," ","","quente,","","","",""
"","1029","audio-keyboard-response","127","229981","0.0-3.0-1.92","../audio/12-5-masc.mp3"," ","","tranquilo","","","",""
"","771","audio-keyboard-response","128","231074","0.0-3.0-1.93","../audio/12-6-masc.mp3"," ","","e","","","",""
"","1440","audio-keyboard-response","129","232843","0.0-3.0-1.94","../audio/12-7-masc.mp3"," ","","ensolarado.","","","",""
"","null","html-keyboard-response","130","234109","0.0-3.0-0.95-0.95","<span style= ""font-size:30px; font-family: monospace"">+</span>","null","fixation","","","","",""
"","851","audio-keyboard-response","131","235313","0.0-3.0-1.95","../audio/11-1-fem.mp3"," ","","Elas","","","",""
"","680","audio-keyboard-response","132","236323","0.0-3.0-1.96","../audio/11-2-fem.mp3"," ","","gostam","","","",""
"","1040","audio-keyboard-response","133","237702","0.0-3.0-1.97","../audio/11-3-fem.mp3"," ","","muito","","","",""
"","821","audio-keyboard-response","134","238825","0.0-3.0-1.98","../audio/11-4-fem.mp3"," ","","de","","","",""
"","1571","audio-keyboard-response","135","240748","0.0-3.0-1.99","../audio/11-5-fem.mp3"," ","","aritmética","","","",""
"","760","audio-keyboard-response","136","241825","0.0-3.0-1.100","../audio/11-6-fem.mp3"," ","","e","","","",""
"","829","audio-keyboard-response","137","242984","0.0-3.0-1.101","../audio/11-7-fem.mp3"," ","","de","","","",""
"","1459","audio-keyboard-response","138","244774","0.0-3.0-1.102","../audio/11-8-fem.mp3"," ","","leitura.","","","",""
"","null","html-keyboard-response","139","246040","0.0-3.0-0.103-0.103","<span style= ""font-size:30px; font-family: monospace"">+</span>","null","fixation","","","","",""
"","840","audio-keyboard-response","140","247252","0.0-3.0-1.103","../audio/15-1-masc.mp3"," ","","Meu","","","",""
"","869","audio-keyboard-response","141","248471","0.0-3.0-1.104","../audio/15-2-masc.mp3"," ","","primo","","","",""
"","659","audio-keyboard-response","142","249459","0.0-3.0-1.105","../audio/15-3-masc.mp3"," ","","é","","","",""
"","789","audio-keyboard-response","143","250564","0.0-3.0-1.106","../audio/15-4-masc.mp3"," ","","um","","","",""
"","1000","audio-keyboard-response","144","251896","0.0-3.0-1.107","../audio/15-5-masc.mp3"," ","","grande","","","",""
"","1451","audio-keyboard-response","145","253674","0.0-3.0-1.108","../audio/15-6-masc.mp3"," ","","vendedor","","","",""
"","651","audio-keyboard-response","146","254682","0.0-3.0-1.109","../audio/15-7-masc.mp3"," ","","de","","","",""
"","1261","audio-keyboard-response","147","256312","0.0-3.0-1.110","../audio/15-8-masc.mp3"," ","","carros.","","","",""
"","8223","html-keyboard-response","148","264804","0.0-3.0-2.110-0.110","<span style=""font-size:25px; font-family: monospace"">O primo é um vendedor de carros?</span>","s","","","O primo é um vendedor de carros?","null","exp-sent","false"
"","null","html-keyboard-response","149","266321","0.0-3.0-0.111-0.111","<span style= ""font-size:30px; font-family: monospace"">+</span>","null","fixation","","","","",""
"","811","audio-keyboard-response","150","267474","0.0-3.0-1.111","../audio/56-1-masc.mp3"," ","","A","","","",""
"","979","audio-keyboard-response","151","268773","0.0-3.0-1.112","../audio/56-2-masc.mp3"," ","","moça","","","",""
"","1000","audio-keyboard-response","152","270095","0.0-3.0-1.113","../audio/56-3-masc.mp3"," ","","foi","","","",""
"","880","audio-keyboard-response","153","271305","0.0-3.0-1.114","../audio/56-4-masc.mp3"," ","","à","","","",""
"","1451","audio-keyboard-response","154","273103","0.0-3.0-1.115","../audio/56-5-masc.mp3"," ","","agência","","","",""
"","1181","audio-keyboard-response","155","274627","0.0-3.0-1.116","../audio/56-6-masc.mp3"," ","","bancária","","","",""
"","680","audio-keyboard-response","156","275655","0.0-3.0-1.117","../audio/56-7-masc.mp3"," ","","ontem","","","",""
"","739","audio-keyboard-response","157","276739","0.0-3.0-1.118","../audio/56-8-masc.mp3"," ","","de","","","",""
"","1309","audio-keyboard-response","158","278371","0.0-3.0-1.119","../audio/56-9-masc.mp3"," ","","tarde.","","","",""
"","null","html-keyboard-response","159","279642","0.0-3.0-0.120-0.120","<span style= ""font-size:30px; font-family: monospace"">+</span>","null","fixation","","","","",""
"","699","audio-keyboard-response","160","280692","0.0-3.0-1.120","../audio/59-1-fem.mp3"," ","","O","","","",""
"","1299","audio-keyboard-response","161","282335","0.0-3.0-1.121","../audio/59-2-fem.mp3"," ","","carteiro","","","",""
"","1080","audio-keyboard-response","162","283739","0.0-3.0-1.122","../audio/59-3-fem.mp3"," ","","fez","","","",""
"","931","audio-keyboard-response","163","285027","0.0-3.0-1.123","../audio/59-4-fem.mp3"," ","","uma","","","",""
"","909","audio-keyboard-response","164","286285","0.0-3.0-1.124","../audio/59-5-fem.mp3"," ","","tentativa","","","",""
"","872","audio-keyboard-response","165","287476","0.0-3.0-1.125","../audio/59-6-fem.mp3"," ","","de","","","",""
"","1080","audio-keyboard-response","166","288897","0.0-3.0-1.126","../audio/59-7-fem.mp3"," ","","entrega.","","","",""
"","null","html-keyboard-response","167","290165","0.0-3.0-0.127-0.127","<span style= ""font-size:30px; font-family: monospace"">+</span>","null","fixation","","","","",""
"","779","audio-keyboard-response","168","291287","0.0-3.0-1.127","../audio/57-1-fem.mp3"," ","","O","","","",""
"","1301","audio-keyboard-response","169","292913","0.0-3.0-1.128","../audio/57-2-fem.mp3"," ","","capitão","","","",""
"","771","audio-keyboard-response","170","293998","0.0-3.0-1.129","../audio/57-3-fem.mp3"," ","","deu","","","",""
"","960","audio-keyboard-response","171","295286","0.0-3.0-1.130","../audio/57-4-fem.mp3"," ","","uma","","","",""
"","1539","audio-keyboard-response","172","297171","0.0-3.0-1.131","../audio/57-5-fem.mp3"," ","","instrução","","","",""
"","1019","audio-keyboard-response","173","298524","0.0-3.0-1.132","../audio/57-6-fem.mp3"," ","","para","","","",""
"","800","audio-keyboard-response","174","299669","0.0-3.0-1.133","../audio/57-7-fem.mp3"," ","","as","","","",""
"","1448","audio-keyboard-response","175","301450","0.0-3.0-1.134","../audio/57-8-fem.mp3"," ","","pessoas.","","","",""
"","null","html-keyboard-response","176","302720","0.0-3.0-0.135-0.135","<span style= ""font-size:30px; font-family: monospace"">+</span>","null","fixation","","","","",""
"","1048","audio-keyboard-response","177","304130","0.0-3.0-1.135","../audio/58-1-masc.mp3"," ","","Havia","","","",""
"","1141","audio-keyboard-response","178","305599","0.0-3.0-1.136","../audio/58-2-masc.mp3"," ","","apenas","","","",""
"","832","audio-keyboard-response","179","306757","0.0-3.0-1.137","../audio/58-3-masc.mp3"," ","","um","","","",""
"","789","audio-keyboard-response","180","307887","0.0-3.0-1.138","../audio/58-4-masc.mp3"," ","","último","","","",""
"","1261","audio-keyboard-response","181","309474","0.0-3.0-1.139","../audio/58-5-masc.mp3"," ","","herdeiro","","","",""
"","792","audio-keyboard-response","182","310601","0.0-3.0-1.140","../audio/58-6-masc.mp3"," ","","do","","","",""
"","1789","audio-keyboard-response","183","312731","0.0-3.0-1.141","../audio/58-7-masc.mp3"," ","","dinheiro.","","","",""
"","null","html-keyboard-response","184","314005","0.0-3.0-0.142-0.142","<span style= ""font-size:30px; font-family: monospace"">+</span>","null","fixation","","","","",""
"","1269","audio-keyboard-response","185","315659","0.0-3.0-1.142","../audio/60-1-fem.mp3"," ","","Ondas","","","",""
"","821","audio-keyboard-response","186","316793","0.0-3.0-1.143","../audio/60-2-fem.mp3"," ","","têm","","","",""
"","1189","audio-keyboard-response","187","318326","0.0-3.0-1.144","../audio/60-3-fem.mp3"," ","","um","","","",""
"","1309","audio-keyboard-response","188","319979","0.0-3.0-1.145","../audio/60-4-fem.mp3"," ","","impacto","","","",""
"","1160","audio-keyboard-response","189","321486","0.0-3.0-1.146","../audio/60-5-fem.mp3"," ","","destrutivo","","","",""
"","1069","audio-keyboard-response","190","322890","0.0-3.0-1.147","../audio/60-6-fem.mp3"," ","","no","","","",""
"","1429","audio-keyboard-response","191","324653","0.0-3.0-1.148","../audio/60-7-fem.mp3"," ","","litoral.","","","",""
"","7729","html-keyboard-response","192","332640","0.0-3.0-2.148-0.148","<span style=""font-size:25px; font-family: monospace"">Ondas têm um impacto destrutivo?</span>","s","","","Ondas têm um impacto destrutivo?","null","exp-sent","false"
"","null","html-keyboard-response","193","334165","0.0-3.0-0.149-0.149","<span style= ""font-size:30px; font-family: monospace"">+</span>","null","fixation","","","","",""
"","328","audio-keyboard-response","194","334848","0.0-3.0-1.149","../audio/28-1-masc.mp3"," ","","O","","","",""
"","1171","audio-keyboard-response","195","336334","0.0-3.0-1.150","../audio/28-2-masc.mp3"," ","","time","","","",""
"","981","audio-keyboard-response","196","337637","0.0-3.0-1.151","../audio/28-3-masc.mp3"," ","","quer","","","",""
"","859","audio-keyboard-response","197","338803","0.0-3.0-1.152","../audio/28-4-masc.mp3"," ","","a","","","",""
"","1320","audio-keyboard-response","198","340475","0.0-3.0-1.153","../audio/28-5-masc.mp3"," ","","vitória","","","",""
"","880","audio-keyboard-response","199","341692","0.0-3.0-1.154","../audio/28-6-masc.mp3"," ","","no","","","",""
"","931","audio-keyboard-response","200","342960","0.0-3.0-1.155","../audio/28-7-masc.mp3"," ","","jogo","","","",""
"","920","audio-keyboard-response","201","344202","0.0-3.0-1.156","../audio/28-8-masc.mp3"," ","","de","","","",""
"","1160","audio-keyboard-response","202","345684","0.0-3.0-1.157","../audio/28-9-masc.mp3"," ","","vôlei.","","","",""
"","null","html-keyboard-response","203","346946","0.0-3.0-0.158-0.158","<span style= ""font-size:30px; font-family: monospace"">+</span>","null","fixation","","","","",""
"","411","audio-keyboard-response","204","347716","0.0-3.0-1.158","../audio/26-1-masc.mp3"," ","","Amanhã","","","",""
"","1061","audio-keyboard-response","205","349110","0.0-3.0-1.159","../audio/26-2-masc.mp3"," ","","temos","","","",""
"","1109","audio-keyboard-response","206","350547","0.0-3.0-1.160","../audio/26-3-masc.mp3"," ","","festa","","","",""
"","920","audio-keyboard-response","207","351795","0.0-3.0-1.161","../audio/26-4-masc.mp3"," ","","na","","","",""
"","1080","audio-keyboard-response","208","353193","0.0-3.0-1.162","../audio/26-5-masc.mp3"," ","","piscina","","","",""
"","800","audio-keyboard-response","209","354300","0.0-3.0-1.163","../audio/26-6-masc.mp3"," ","","o","","","",""
"","1069","audio-keyboard-response","210","355729","0.0-3.0-1.164","../audio/26-7-masc.mp3"," ","","dia","","","",""
"","1920","audio-keyboard-response","211","357971","0.0-3.0-1.165","../audio/26-8-masc.mp3"," ","","todo.","","","",""
"","null","html-keyboard-response","212","359231","0.0-3.0-0.166-0.166","<span style= ""font-size:30px; font-family: monospace"">+</span>","null","fixation","","","","",""
"","1069","audio-keyboard-response","213","360659","0.0-3.0-1.166","../audio/29-1-masc.mp3"," ","","Hoje","","","",""
"","1160","audio-keyboard-response","214","362152","0.0-3.0-1.167","../audio/29-2-masc.mp3"," ","","vamos","","","",""
"","989","audio-keyboard-response","215","363463","0.0-3.0-1.168","../audio/29-3-masc.mp3"," ","","fazer","","","",""
"","901","audio-keyboard-response","216","364715","0.0-3.0-1.169","../audio/29-4-masc.mp3"," ","","uma","","","",""
"","1528","audio-keyboard-response","217","366606","0.0-3.0-1.170","../audio/29-5-masc.mp3"," ","","atividade","","","",""
"","1109","audio-keyboard-response","218","368044","0.0-3.0-1.171","../audio/29-6-masc.mp3"," ","","sobre","","","",""
"","1171","audio-keyboard-response","219","369558","0.0-3.0-1.172","../audio/29-7-masc.mp3"," ","","fauna","","","",""
"","2280","audio-keyboard-response","220","372493","0.0-3.0-1.173","../audio/29-8-masc.mp3"," ","","marinha.","","","",""
"","null","html-keyboard-response","221","373770","0.0-3.0-0.174-0.174","<span style= ""font-size:30px; font-family: monospace"">+</span>","null","fixation","","","","",""
"","749","audio-keyboard-response","222","374894","0.0-3.0-1.174","../audio/27-1-masc.mp3"," ","","O","","","",""
"","1160","audio-keyboard-response","223","376398","0.0-3.0-1.175","../audio/27-2-masc.mp3"," ","","dinheiro","","","",""
"","1011","audio-keyboard-response","224","377737","0.0-3.0-1.176","../audio/27-3-masc.mp3"," ","","chegou","","","",""
"","808","audio-keyboard-response","225","378883","0.0-3.0-1.177","../audio/27-4-masc.mp3"," ","","à","","","",""
"","1141","audio-keyboard-response","226","380357","0.0-3.0-1.178","../audio/27-5-masc.mp3"," ","","elite","","","",""
"","1000","audio-keyboard-response","227","381708","0.0-3.0-1.179","../audio/27-6-masc.mp3"," ","","deste","","","",""
"","1760","audio-keyboard-response","228","383802","0.0-3.0-1.180","../audio/27-7-masc.mp3"," ","","país.","","","",""
"","null","html-keyboard-response","229","385061","0.0-3.0-0.181-0.181","<span style= ""font-size:30px; font-family: monospace"">+</span>","null","fixation","","","","",""
"","792","audio-keyboard-response","230","386196","0.0-3.0-1.181","../audio/30-1-fem.mp3"," ","","O","","","",""
"","1379","audio-keyboard-response","231","387935","0.0-3.0-1.182","../audio/30-2-fem.mp3"," ","","funcionário","","","",""
"","1248","audio-keyboard-response","232","389532","0.0-3.0-1.183","../audio/30-3-fem.mp3"," ","","entregou","","","",""
"","789","audio-keyboard-response","233","390659","0.0-3.0-1.184","../audio/30-4-fem.mp3"," ","","o","","","",""
"","1341","audio-keyboard-response","234","392351","0.0-3.0-1.185","../audio/30-5-fem.mp3"," ","","restante","","","",""
"","760","audio-keyboard-response","235","393439","0.0-3.0-1.186","../audio/30-6-fem.mp3"," ","","do","","","",""
"","1891","audio-keyboard-response","236","395663","0.0-3.0-1.187","../audio/30-7-fem.mp3"," ","","dinheiro.","","","",""
"","4004","html-keyboard-response","237","399921","0.0-3.0-2.187-0.187","<span style=""font-size:25px; font-family: monospace"">O funcionário entregou o contrato?</span>","n","","","O funcionário entregou o contrato?","null","exp-sent","false"
"","null","html-keyboard-response","238","401443","0.0-3.0-0.188-0.188","<span style= ""font-size:30px; font-family: monospace"">+</span>","null","fixation","","","","",""
"","240","audio-keyboard-response","239","402043","0.0-3.0-1.188","../audio/44-1-fem.mp3"," ","","Meus","","","",""
"","1440","audio-keyboard-response","240","403822","0.0-3.0-1.189","../audio/44-2-fem.mp3"," ","","irmãos","","","",""
"","989","audio-keyboard-response","241","405146","0.0-3.0-1.190","../audio/44-3-fem.mp3"," ","","brigam","","","",""
"","789","audio-keyboard-response","242","406257","0.0-3.0-1.191","../audio/44-4-fem.mp3"," ","","por","","","",""
"","1280","audio-keyboard-response","243","407892","0.0-3.0-1.192","../audio/44-5-fem.mp3"," ","","bobagem","","","",""
"","1019","audio-keyboard-response","244","409244","0.0-3.0-1.193","../audio/44-6-fem.mp3"," ","","todos","","","",""
"","872","audio-keyboard-response","245","410437","0.0-3.0-1.194","../audio/44-7-fem.mp3"," ","","os","","","",""
"","1200","audio-keyboard-response","246","411983","0.0-3.0-1.195","../audio/44-8-fem.mp3"," ","","dias.","","","",""
"","null","html-keyboard-response","247","413247","0.0-3.0-0.196-0.196","<span style= ""font-size:30px; font-family: monospace"">+</span>","null","fixation","","","","",""
"","781","audio-keyboard-response","248","414438","0.0-3.0-1.196","../audio/42-1-fem.mp3"," ","","Eu","","","",""
"","931","audio-keyboard-response","249","415673","0.0-3.0-1.197","../audio/42-2-fem.mp3"," ","","fui","","","",""
"","840","audio-keyboard-response","250","416833","0.0-3.0-1.198","../audio/42-3-fem.mp3"," ","","a","","","",""
"","869","audio-keyboard-response","251","418032","0.0-3.0-1.199","../audio/42-4-fem.mp3"," ","","uma","","","",""
"","1051","audio-keyboard-response","252","419430","0.0-3.0-1.200","../audio/42-5-fem.mp3"," ","","loja","","","",""
"","779","audio-keyboard-response","253","420541","0.0-3.0-1.201","../audio/42-6-fem.mp3"," ","","de","","","",""
"","1152","audio-keyboard-response","254","422034","0.0-3.0-1.202","../audio/42-7-fem.mp3"," ","","móveis","","","",""
"","869","audio-keyboard-response","255","423231","0.0-3.0-1.203","../audio/42-8-fem.mp3"," ","","no","","","",""
"","1488","audio-keyboard-response","256","425045","0.0-3.0-1.204","../audio/42-9-fem.mp3"," ","","bairro.","","","",""
"","null","html-keyboard-response","257","426315","0.0-3.0-0.205-0.205","<span style= ""font-size:30px; font-family: monospace"">+</span>","null","fixation","","","","",""
"","891","audio-keyboard-response","258","427545","0.0-3.0-1.205","../audio/43-1-masc.mp3"," ","","Eu","","","",""
"","920","audio-keyboard-response","259","428798","0.0-3.0-1.206","../audio/43-2-masc.mp3"," ","","achei","","","",""
"","832","audio-keyboard-response","260","429956","0.0-3.0-1.207","../audio/43-3-masc.mp3"," ","","um","","","",""
"","1109","audio-keyboard-response","261","431411","0.0-3.0-1.208","../audio/43-4-masc.mp3"," ","","colchão","","","",""
"","1061","audio-keyboard-response","262","432797","0.0-3.0-1.209","../audio/43-5-masc.mp3"," ","","velho","","","",""
"","811","audio-keyboard-response","263","433917","0.0-3.0-1.210","../audio/43-6-masc.mp3"," ","","e","","","",""
"","1101","audio-keyboard-response","264","435352","0.0-3.0-1.211","../audio/43-7-masc.mp3"," ","","imundo","","","",""
"","872","audio-keyboard-response","265","436560","0.0-3.0-1.212","../audio/43-8-masc.mp3"," ","","na","","","",""
"","1411","audio-keyboard-response","266","438293","0.0-3.0-1.213","../audio/43-9-masc.mp3"," ","","casa.","","","",""
"","null","html-keyboard-response","267","439552","0.0-3.0-0.214-0.214","<span style= ""font-size:30px; font-family: monospace"">+</span>","null","fixation","","","","",""
"","760","audio-keyboard-response","268","440671","0.0-3.0-1.214","../audio/41-1-masc.mp3"," ","","A","","","",""
"","1040","audio-keyboard-response","269","442062","0.0-3.0-1.215","../audio/41-2-masc.mp3"," ","","novela","","","",""
"","1000","audio-keyboard-response","270","443397","0.0-3.0-1.216","../audio/41-3-masc.mp3"," ","","falava","","","",""
"","752","audio-keyboard-response","271","444476","0.0-3.0-1.217","../audio/41-4-masc.mp3"," ","","de","","","",""
"","1040","audio-keyboard-response","272","445844","0.0-3.0-1.218","../audio/41-5-masc.mp3"," ","","paixão","","","",""
"","749","audio-keyboard-response","273","446904","0.0-3.0-1.219","../audio/41-6-masc.mp3"," ","","e","","","",""
"","1691","audio-keyboard-response","274","448933","0.0-3.0-1.220","../audio/41-7-masc.mp3"," ","","comédia.","","","",""
"","null","html-keyboard-response","275","450210","0.0-3.0-0.221-0.221","<span style= ""font-size:30px; font-family: monospace"">+</span>","null","fixation","","","","",""
"","741","audio-keyboard-response","276","451309","0.0-3.0-1.221","../audio/45-1-masc.mp3"," ","","O","","","",""
"","861","audio-keyboard-response","277","452510","0.0-3.0-1.222","../audio/45-2-masc.mp3"," ","","homem","","","",""
"","880","audio-keyboard-response","278","453716","0.0-3.0-1.223","../audio/45-3-masc.mp3"," ","","pagou","","","",""
"","739","audio-keyboard-response","279","454782","0.0-3.0-1.224","../audio/45-4-masc.mp3"," ","","o","","","",""
"","1011","audio-keyboard-response","280","456122","0.0-3.0-1.225","../audio/45-5-masc.mp3"," ","","aluguel","","","",""
"","760","audio-keyboard-response","281","457200","0.0-3.0-1.226","../audio/45-6-masc.mp3"," ","","com","","","",""
"","1819","audio-keyboard-response","282","459373","0.0-3.0-1.227","../audio/45-7-masc.mp3"," ","","atraso.","","","",""
"","4073","html-keyboard-response","283","463711","0.0-3.0-2.227-0.227","<span style=""font-size:25px; font-family: monospace"">O homem pagou o aluguel em dia?</span>","n","","","O homem pagou o aluguel em dia?","null","exp-sent","false"
"","null","html-keyboard-response","284","465225","0.0-3.0-0.228-0.228","<span style= ""font-size:30px; font-family: monospace"">+</span>","null","fixation","","","","",""
"","1520","audio-keyboard-response","285","467112","0.0-3.0-1.228","../audio/34-1-fem.mp3"," ","","Cobrança","","","",""
"","1739","audio-keyboard-response","286","469204","0.0-3.0-1.229","../audio/34-2-fem.mp3"," ","","excessiva","","","",""
"","709","audio-keyboard-response","287","470262","0.0-3.0-1.230","../audio/34-3-fem.mp3"," ","","é","","","",""
"","891","audio-keyboard-response","288","471473","0.0-3.0-1.231","../audio/34-4-fem.mp3"," ","","um","","","",""
"","1160","audio-keyboard-response","289","472983","0.0-3.0-1.232","../audio/34-5-fem.mp3"," ","","fardo","","","",""
"","971","audio-keyboard-response","290","474264","0.0-3.0-1.233","../audio/34-6-fem.mp3"," ","","para","","","",""
"","808","audio-keyboard-response","291","475412","0.0-3.0-1.234","../audio/34-7-fem.mp3"," ","","a","","","",""
"","1408","audio-keyboard-response","292","477172","0.0-3.0-1.235","../audio/34-8-fem.mp3"," ","","cabeça.","","","",""
"","null","html-keyboard-response","293","478435","0.0-3.0-0.236-0.236","<span style= ""font-size:30px; font-family: monospace"">+</span>","null","fixation","","","","",""
"","840","audio-keyboard-response","294","479641","0.0-3.0-1.236","../audio/32-1-masc.mp3"," ","","A","","","",""
"","931","audio-keyboard-response","295","480893","0.0-3.0-1.237","../audio/32-2-masc.mp3"," ","","tia","","","",""
"","989","audio-keyboard-response","296","482215","0.0-3.0-1.238","../audio/32-3-masc.mp3"," ","","comprou","","","",""
"","701","audio-keyboard-response","297","483234","0.0-3.0-1.239","../audio/32-4-masc.mp3"," ","","um","","","",""
"","1160","audio-keyboard-response","298","484733","0.0-3.0-1.240","../audio/32-5-masc.mp3"," ","","pilão","","","",""
"","941","audio-keyboard-response","299","485994","0.0-3.0-1.241","../audio/32-6-masc.mp3"," ","","para","","","",""
"","760","audio-keyboard-response","300","487075","0.0-3.0-1.242","../audio/32-7-masc.mp3"," ","","a","","","",""
"","1291","audio-keyboard-response","301","488701","0.0-3.0-1.243","../audio/32-8-masc.mp3"," ","","cozinha.","","","",""
"","null","html-keyboard-response","302","489966","0.0-3.0-0.244-0.244","<span style= ""font-size:30px; font-family: monospace"">+</span>","null","fixation","","","","",""
"","960","audio-keyboard-response","303","491299","0.0-3.0-1.244","../audio/33-1-fem.mp3"," ","","Eles","","","",""
"","1179","audio-keyboard-response","304","492820","0.0-3.0-1.245","../audio/33-2-fem.mp3"," ","","sabem","","","",""
"","869","audio-keyboard-response","305","494016","0.0-3.0-1.246","../audio/33-3-fem.mp3"," ","","do","","","",""
"","1109","audio-keyboard-response","306","495454","0.0-3.0-1.247","../audio/33-4-fem.mp3"," ","","seu","","","",""
"","1619","audio-keyboard-response","307","497416","0.0-3.0-1.248","../audio/33-5-fem.mp3"," ","","privilégio","","","",""
"","1211","audio-keyboard-response","308","498976","0.0-3.0-1.249","../audio/33-6-fem.mp3"," ","","nessa","","","",""
"","1560","audio-keyboard-response","309","500889","0.0-3.0-1.250","../audio/33-7-fem.mp3"," ","","confusão.","","","",""
"","null","html-keyboard-response","310","502160","0.0-3.0-0.251-0.251","<span style= ""font-size:30px; font-family: monospace"">+</span>","null","fixation","","","","",""
"","749","audio-keyboard-response","311","503262","0.0-3.0-1.251","../audio/31-1-fem.mp3"," ","","O","","","",""
"","1272","audio-keyboard-response","312","504879","0.0-3.0-1.252","../audio/31-2-fem.mp3"," ","","padeiro","","","",""
"","1080","audio-keyboard-response","313","506303","0.0-3.0-1.253","../audio/31-3-fem.mp3"," ","","usou","","","",""
"","699","audio-keyboard-response","314","507329","0.0-3.0-1.254","../audio/31-4-fem.mp3"," ","","a","","","",""
"","1331","audio-keyboard-response","315","508994","0.0-3.0-1.255","../audio/31-5-fem.mp3"," ","","balança","","","",""
"","800","audio-keyboard-response","316","510144","0.0-3.0-1.256","../audio/31-6-fem.mp3"," ","","o","","","",""
"","1139","audio-keyboard-response","317","511613","0.0-3.0-1.257","../audio/31-7-fem.mp3"," ","","dia","","","",""
"","1869","audio-keyboard-response","318","513817","0.0-3.0-1.258","../audio/31-8-fem.mp3"," ","","inteiro.","","","",""
"","null","html-keyboard-response","319","515091","0.0-3.0-0.259-0.259","<span style= ""font-size:30px; font-family: monospace"">+</span>","null","fixation","","","","",""
"","800","audio-keyboard-response","320","516274","0.0-3.0-1.259","../audio/35-1-masc.mp3"," ","","A","","","",""
"","1061","audio-keyboard-response","321","517681","0.0-3.0-1.260","../audio/35-2-masc.mp3"," ","","receita","","","",""
"","1021","audio-keyboard-response","322","519027","0.0-3.0-1.261","../audio/35-3-masc.mp3"," ","","para","","","",""
"","789","audio-keyboard-response","323","520139","0.0-3.0-1.262","../audio/35-4-masc.mp3"," ","","a","","","",""
"","1280","audio-keyboard-response","324","521756","0.0-3.0-1.263","../audio/35-5-masc.mp3"," ","","preparação","","","",""
"","771","audio-keyboard-response","325","522870","0.0-3.0-1.264","../audio/35-6-masc.mp3"," ","","do","","","",""
"","1000","audio-keyboard-response","326","524207","0.0-3.0-1.265","../audio/35-7-masc.mp3"," ","","bolo","","","",""
"","861","audio-keyboard-response","327","525393","0.0-3.0-1.266","../audio/35-8-masc.mp3"," ","","é","","","",""
"","1080","audio-keyboard-response","328","526799","0.0-3.0-1.267","../audio/35-9-masc.mp3"," ","","leve.","","","",""
"","8494","html-keyboard-response","329","535545","0.0-3.0-2.267-0.267","<span style=""font-size:25px; font-family: monospace"">A receita do bolo é pesada?</span>","n","","","A receita do bolo é pesada?","null","exp-sent","false"
"","null","html-keyboard-response","330","537059","0.0-3.0-0.268-0.268","<span style= ""font-size:30px; font-family: monospace"">+</span>","null","fixation","","","","",""
"","1451","audio-keyboard-response","331","538875","0.0-3.0-1.268","../audio/04-1-masc.mp3"," ","","Duzentos","","","",""
"","949","audio-keyboard-response","332","540145","0.0-3.0-1.269","../audio/04-2-masc.mp3"," ","","carros","","","",""
"","1061","audio-keyboard-response","333","541553","0.0-3.0-1.270","../audio/04-3-masc.mp3"," ","","passaram","","","",""
"","899","audio-keyboard-response","334","542777","0.0-3.0-1.271","../audio/04-4-masc.mp3"," ","","pela","","","",""
"","920","audio-keyboard-response","335","544025","0.0-3.0-1.272","../audio/04-5-masc.mp3"," ","","ponte","","","",""
"","952","audio-keyboard-response","336","545314","0.0-3.0-1.273","../audio/04-6-masc.mp3"," ","","hoje","","","",""
"","731","audio-keyboard-response","337","546373","0.0-3.0-1.274","../audio/04-7-masc.mp3"," ","","de","","","",""
"","1029","audio-keyboard-response","338","547726","0.0-3.0-1.275","../audio/04-8-masc.mp3"," ","","tarde.","","","",""
"","null","html-keyboard-response","339","549002","0.0-3.0-0.276-0.276","<span style= ""font-size:30px; font-family: monospace"">+</span>","null","fixation","","","","",""
"","659","audio-keyboard-response","340","550006","0.0-3.0-1.276","../audio/03-1-masc.mp3"," ","","O","","","",""
"","891","audio-keyboard-response","341","551220","0.0-3.0-1.277","../audio/03-2-masc.mp3"," ","","coelho","","","",""
"","771","audio-keyboard-response","342","552340","0.0-3.0-1.278","../audio/03-3-masc.mp3"," ","","foi","","","",""
"","1141","audio-keyboard-response","343","553794","0.0-3.0-1.279","../audio/03-4-masc.mp3"," ","","bastante","","","",""
"","1400","audio-keyboard-response","344","555514","0.0-3.0-1.280","../audio/03-5-masc.mp3"," ","","dócil","","","",""
"","771","audio-keyboard-response","345","556655","0.0-3.0-1.281","../audio/03-6-masc.mp3"," ","","com","","","",""
"","851","audio-keyboard-response","346","557842","0.0-3.0-1.282","../audio/03-7-masc.mp3"," ","","as","","","",""
"","1349","audio-keyboard-response","347","559539","0.0-3.0-1.283","../audio/03-8-masc.mp3"," ","","crianças.","","","",""
"","null","html-keyboard-response","348","560805","0.0-3.0-0.284-0.284","<span style= ""font-size:30px; font-family: monospace"">+</span>","null","fixation","","","","",""
"","741","audio-keyboard-response","349","561917","0.0-3.0-1.284","../audio/01-1-masc.mp3"," ","","O","","","",""
"","1072","audio-keyboard-response","350","563316","0.0-3.0-1.285","../audio/01-2-masc.mp3"," ","","menino","","","",""
"","971","audio-keyboard-response","351","564630","0.0-3.0-1.286","../audio/01-3-masc.mp3"," ","","derrubou","","","",""
"","739","audio-keyboard-response","352","565701","0.0-3.0-1.287","../audio/01-4-masc.mp3"," ","","a","","","",""
"","1552","audio-keyboard-response","353","567597","0.0-3.0-1.288","../audio/01-5-masc.mp3"," ","","guitarra","","","",""
"","1120","audio-keyboard-response","354","569047","0.0-3.0-1.289","../audio/01-6-masc.mp3"," ","","no","","","",""
"","1091","audio-keyboard-response","355","570470","0.0-3.0-1.290","../audio/01-7-masc.mp3"," ","","chão.","","","",""
"","null","html-keyboard-response","356","571742","0.0-3.0-0.291-0.291","<span style= ""font-size:30px; font-family: monospace"">+</span>","null","fixation","","","","",""
"","709","audio-keyboard-response","357","572790","0.0-3.0-1.291","../audio/02-2-fem.mp3"," ","","Havia","","","",""
"","859","audio-keyboard-response","358","573893","0.0-3.0-1.292","../audio/02-2-fem.mp3"," ","","um","","","",""
"","891","audio-keyboard-response","359","575138","0.0-3.0-1.293","../audio/02-3-fem.mp3"," ","","cheiro","","","",""
"","731","audio-keyboard-response","360","576189","0.0-3.0-1.294","../audio/02-4-fem.mp3"," ","","de","","","",""
"","1421","audio-keyboard-response","361","577953","0.0-3.0-1.295","../audio/02-5-fem.mp3"," ","","gasolina","","","",""
"","779","audio-keyboard-response","362","579055","0.0-3.0-1.296","../audio/02-6-fem.mp3"," ","","na","","","",""
"","1240","audio-keyboard-response","363","580650","0.0-3.0-1.297","../audio/02-7-fem.mp3"," ","","garagem.","","","",""
"","null","html-keyboard-response","364","581918","0.0-3.0-0.298-0.298","<span style= ""font-size:30px; font-family: monospace"">+</span>","null","fixation","","","","",""
"","749","audio-keyboard-response","365","583022","0.0-3.0-1.298","../audio/05-1-masc.mp3"," ","","A","","","",""
"","941","audio-keyboard-response","366","584305","0.0-3.0-1.299","../audio/05-2-masc.mp3"," ","","vendedora","","","",""
"","1000","audio-keyboard-response","367","585659","0.0-3.0-1.300","../audio/05-3-masc.mp3"," ","","ajudou","","","",""
"","731","audio-keyboard-response","368","586707","0.0-3.0-1.301","../audio/05-4-masc.mp3"," ","","um","","","",""
"","1101","audio-keyboard-response","369","588188","0.0-3.0-1.302","../audio/05-5-masc.mp3"," ","","turista","","","",""
"","792","audio-keyboard-response","370","589318","0.0-3.0-1.303","../audio/05-6-masc.mp3"," ","","na","","","",""
"","1200","audio-keyboard-response","371","590884","0.0-3.0-1.304","../audio/05-7-masc.mp3"," ","","loja.","","","",""
"","6944","html-keyboard-response","372","598082","0.0-3.0-2.304-0.304","<span style=""font-size:25px; font-family: monospace"">A vendedora ajudou um turista?</span>","s","","","A vendedora ajudou um turista?","null","exp-sent","false"
"","null","html-keyboard-response","373","599599","0.0-3.0-0.305-0.305","<span style= ""font-size:30px; font-family: monospace"">+</span>","null","fixation","","","","",""
"","931","audio-keyboard-response","374","600866","0.0-3.0-1.305","../audio/22-1-masc.mp3"," ","","Eu","","","",""
"","1061","audio-keyboard-response","375","602270","0.0-3.0-1.306","../audio/22-2-masc.mp3"," ","","detesto","","","",""
"","1131","audio-keyboard-response","376","603752","0.0-3.0-1.307","../audio/22-3-masc.mp3"," ","","fumaça","","","",""
"","651","audio-keyboard-response","377","604742","0.0-3.0-1.308","../audio/22-4-masc.mp3"," ","","de","","","",""
"","1120","audio-keyboard-response","378","606201","0.0-3.0-1.309","../audio/22-5-masc.mp3"," ","","cachimbo","","","",""
"","672","audio-keyboard-response","379","607200","0.0-3.0-1.310","../audio/22-6-masc.mp3"," ","","e","","","",""
"","701","audio-keyboard-response","380","608233","0.0-3.0-1.311","../audio/22-7-masc.mp3"," ","","de","","","",""
"","1261","audio-keyboard-response","381","609833","0.0-3.0-1.312","../audio/22-8-masc.mp3"," ","","cigarro.","","","",""
"","null","html-keyboard-response","382","611104","0.0-3.0-0.313-0.313","<span style= ""font-size:30px; font-family: monospace"">+</span>","null","fixation","","","","",""
"","1488","audio-keyboard-response","383","612967","0.0-3.0-1.313","../audio/21-1-fem.mp3"," ","","Precisamos","","","",""
"","691","audio-keyboard-response","384","613983","0.0-3.0-1.314","../audio/21-2-fem.mp3"," ","","de","","","",""
"","1541","audio-keyboard-response","385","615871","0.0-3.0-1.315","../audio/21-3-fem.mp3"," ","","paciência","","","",""
"","728","audio-keyboard-response","386","616924","0.0-3.0-1.316","../audio/21-4-fem.mp3"," ","","e","","","",""
"","1339","audio-keyboard-response","387","618605","0.0-3.0-1.317","../audio/21-5-fem.mp3"," ","","bondade","","","",""
"","1051","audio-keyboard-response","388","619978","0.0-3.0-1.318","../audio/21-6-fem.mp3"," ","","para","","","",""
"","771","audio-keyboard-response","389","621077","0.0-3.0-1.319","../audio/21-7-fem.mp3"," ","","um","","","",""
"","1131","audio-keyboard-response","390","622540","0.0-3.0-1.320","../audio/21-8-fem.mp3"," ","","mundo","","","",""
"","1280","audio-keyboard-response","391","624161","0.0-3.0-1.321","../audio/21-9-fem.mp3"," ","","melhor.","","","",""
"","null","html-keyboard-response","392","625425","0.0-3.0-0.322-0.322","<span style= ""font-size:30px; font-family: monospace"">+</span>","null","fixation","","","","",""
"","1219","audio-keyboard-response","393","627004","0.0-3.0-1.322","../audio/23-1-masc.mp3"," ","","Português","","","",""
"","672","audio-keyboard-response","394","627996","0.0-3.0-1.323","../audio/23-2-masc.mp3"," ","","é","","","",""
"","829","audio-keyboard-response","395","629148","0.0-3.0-1.324","../audio/23-3-masc.mp3"," ","","um","","","",""
"","1101","audio-keyboard-response","396","630584","0.0-3.0-1.325","../audio/23-4-masc.mp3"," ","","assunto","","","",""
"","1459","audio-keyboard-response","397","632375","0.0-3.0-1.326","../audio/23-5-masc.mp3"," ","","elementar","","","",""
"","832","audio-keyboard-response","398","633511","0.0-3.0-1.327","../audio/23-6-masc.mp3"," ","","para","","","",""
"","811","audio-keyboard-response","399","634659","0.0-3.0-1.328","../audio/23-7-masc.mp3"," ","","os","","","",""
"","1480","audio-keyboard-response","400","636442","0.0-3.0-1.329","../audio/23-8-masc.mp3"," ","","alunos.","","","",""
"","null","html-keyboard-response","401","637706","0.0-3.0-0.330-0.330","<span style= ""font-size:30px; font-family: monospace"">+</span>","null","fixation","","","","",""
"","720","audio-keyboard-response","402","638765","0.0-3.0-1.330","../audio/24-1-fem.mp3"," ","","As","","","",""
"","1189","audio-keyboard-response","403","640297","0.0-3.0-1.331","../audio/24-2-fem.mp3"," ","","crianças","","","",""
"","840","audio-keyboard-response","404","641461","0.0-3.0-1.332","../audio/24-3-fem.mp3"," ","","vão","","","",""
"","779","audio-keyboard-response","405","642563","0.0-3.0-1.333","../audio/24-4-fem.mp3"," ","","ao","","","",""
"","1280","audio-keyboard-response","406","644205","0.0-3.0-1.334","../audio/24-5-fem.mp3"," ","","cinema","","","",""
"","931","audio-keyboard-response","407","645479","0.0-3.0-1.335","../audio/24-6-fem.mp3"," ","","mais","","","",""
"","1080","audio-keyboard-response","408","646906","0.0-3.0-1.336","../audio/24-7-fem.mp3"," ","","tarde.","","","",""
"","null","html-keyboard-response","409","648174","0.0-3.0-0.337-0.337","<span style= ""font-size:30px; font-family: monospace"">+</span>","null","fixation","","","","",""
"","771","audio-keyboard-response","410","649298","0.0-3.0-1.337","../audio/25-1-fem.mp3"," ","","Ela","","","",""
"","749","audio-keyboard-response","411","650378","0.0-3.0-1.338","../audio/25-2-fem.mp3"," ","","faz","","","",""
"","1051","audio-keyboard-response","412","651732","0.0-3.0-1.339","../audio/25-3-fem.mp3"," ","","tanto","","","",""
"","1099","audio-keyboard-response","413","653142","0.0-3.0-1.340","../audio/25-4-fem.mp3"," ","","cabelo","","","",""
"","1211","audio-keyboard-response","414","654653","0.0-3.0-1.341","../audio/25-5-fem.mp3"," ","","liso","","","",""
"","1011","audio-keyboard-response","415","655994","0.0-3.0-1.342","../audio/25-6-fem.mp3"," ","","quanto","","","",""
"","1501","audio-keyboard-response","416","657831","0.0-3.0-1.343","../audio/25-7-fem.mp3"," ","","cacheado.","","","",""
"","6785","html-keyboard-response","417","664876","0.0-3.0-2.343-0.343","<span style=""font-size:25px; font-family: monospace"">Ela só faz cabelo cacheado?</span>","n","","","Ela só faz cabelo cacheado?","null","exp-sent","false"
"","null","html-keyboard-response","418","666394","0.0-3.0-0.344-0.344","<span style= ""font-size:30px; font-family: monospace"">+</span>","null","fixation","","","","",""
"","861","audio-keyboard-response","419","667597","0.0-3.0-1.344","../audio/79-1-fem.mp3"," ","","A","","","",""
"","1320","audio-keyboard-response","420","669260","0.0-3.0-1.345","../audio/79-2-fem.mp3"," ","","médica","","","",""
"","1339","audio-keyboard-response","421","670932","0.0-3.0-1.346","../audio/79-3-fem.mp3"," ","","verificou","","","",""
"","709","audio-keyboard-response","422","671963","0.0-3.0-1.347","../audio/79-4-fem.mp3"," ","","a","","","",""
"","1549","audio-keyboard-response","423","673857","0.0-3.0-1.348","../audio/79-5-fem.mp3"," ","","gengiva","","","",""
"","701","audio-keyboard-response","424","674874","0.0-3.0-1.349","../audio/79-6-fem.mp3"," ","","por","","","",""
"","1341","audio-keyboard-response","425","676544","0.0-3.0-1.350","../audio/79-7-fem.mp3"," ","","último.","","","",""
"","null","html-keyboard-response","426","677800","0.0-3.0-0.351-0.351","<span style= ""font-size:30px; font-family: monospace"">+</span>","null","fixation","","","","",""
"","741","audio-keyboard-response","427","678873","0.0-3.0-1.351","../audio/77-1-fem.mp3"," ","","A","","","",""
"","1139","audio-keyboard-response","428","680371","0.0-3.0-1.352","../audio/77-2-fem.mp3"," ","","criança","","","",""
"","1061","audio-keyboard-response","429","681757","0.0-3.0-1.353","../audio/77-3-fem.mp3"," ","","ficou","","","",""
"","1200","audio-keyboard-response","430","683303","0.0-3.0-1.354","../audio/77-4-fem.mp3"," ","","muito","","","",""
"","1051","audio-keyboard-response","431","684658","0.0-3.0-1.355","../audio/77-5-fem.mp3"," ","","feliz","","","",""
"","720","audio-keyboard-response","432","685686","0.0-3.0-1.356","../audio/77-6-fem.mp3"," ","","com","","","",""
"","779","audio-keyboard-response","433","686781","0.0-3.0-1.357","../audio/77-7-fem.mp3"," ","","o","","","",""
"","1461","audio-keyboard-response","434","688556","0.0-3.0-1.358","../audio/77-8-fem.mp3"," ","","brinquedo.","","","",""
"","null","html-keyboard-response","435","689822","0.0-3.0-0.359-0.359","<span style= ""font-size:30px; font-family: monospace"">+</span>","null","fixation","","","","",""
"","701","audio-keyboard-response","436","690867","0.0-3.0-1.359","../audio/76-1-fem.mp3"," ","","O","","","",""
"","1360","audio-keyboard-response","437","692570","0.0-3.0-1.360","../audio/76-2-fem.mp3"," ","","bisavô","","","",""
"","1109","audio-keyboard-response","438","694021","0.0-3.0-1.361","../audio/76-3-fem.mp3"," ","","comprou","","","",""
"","880","audio-keyboard-response","439","695217","0.0-3.0-1.362","../audio/76-4-fem.mp3"," ","","um","","","",""
"","1349","audio-keyboard-response","440","696899","0.0-3.0-1.363","../audio/76-5-fem.mp3"," ","","ralador","","","",""
"","752","audio-keyboard-response","441","697957","0.0-3.0-1.364","../audio/76-6-fem.mp3"," ","","de","","","",""
"","1288","audio-keyboard-response","442","699571","0.0-3.0-1.365","../audio/76-7-fem.mp3"," ","","queijo.","","","",""
"","null","html-keyboard-response","443","700830","0.0-3.0-0.366-0.366","<span style= ""font-size:30px; font-family: monospace"">+</span>","null","fixation","","","","",""
"","1011","audio-keyboard-response","444","702186","0.0-3.0-1.366","../audio/78-1-masc.mp3"," ","","Eles","","","",""
"","1008","audio-keyboard-response","445","703533","0.0-3.0-1.367","../audio/78-2-masc.mp3"," ","","trazem","","","",""
"","741","audio-keyboard-response","446","704597","0.0-3.0-1.368","../audio/78-3-masc.mp3"," ","","um","","","",""
"","1011","audio-keyboard-response","447","705937","0.0-3.0-1.369","../audio/78-4-masc.mp3"," ","","fato","","","",""
"","1269","audio-keyboard-response","448","707536","0.0-3.0-1.370","../audio/78-5-masc.mp3"," ","","urgente","","","",""
"","1000","audio-keyboard-response","449","708882","0.0-3.0-1.371","../audio/78-6-masc.mp3"," ","","todos","","","",""
"","731","audio-keyboard-response","450","709988","0.0-3.0-1.372","../audio/78-7-masc.mp3"," ","","os","","","",""
"","1381","audio-keyboard-response","451","711709","0.0-3.0-1.373","../audio/78-8-masc.mp3"," ","","dias.","","","",""
"","null","html-keyboard-response","452","712979","0.0-3.0-0.374-0.374","<span style= ""font-size:30px; font-family: monospace"">+</span>","null","fixation","","","","",""
"","981","audio-keyboard-response","453","714305","0.0-3.0-1.374","../audio/80-1-masc.mp3"," ","","Meu","","","",""
"","949","audio-keyboard-response","454","715588","0.0-3.0-1.375","../audio/80-2-masc.mp3"," ","","primo","","","",""
"","1069","audio-keyboard-response","455","716983","0.0-3.0-1.376","../audio/80-3-masc.mp3"," ","","conheceu","","","",""
"","741","audio-keyboard-response","456","718035","0.0-3.0-1.377","../audio/80-4-masc.mp3"," ","","um","","","",""
"","1131","audio-keyboard-response","457","719506","0.0-3.0-1.378","../audio/80-5-masc.mp3"," ","","jovem","","","",""
"","1131","audio-keyboard-response","458","720977","0.0-3.0-1.379","../audio/80-6-masc.mp3"," ","","amável","","","",""
"","731","audio-keyboard-response","459","722024","0.0-3.0-1.380","../audio/80-7-masc.mp3"," ","","e","","","",""
"","1680","audio-keyboard-response","460","724042","0.0-3.0-1.381","../audio/80-8-masc.mp3"," ","","confiante.","","","",""
"","4595","html-keyboard-response","461","728892","0.0-3.0-2.381-0.381","<span style=""font-size:25px; font-family: monospace"">O primo conheceu um jovem irritante?</span>","n","","","O primo conheceu um jovem irritante?","null","exp-sent","false"
"","null","html-keyboard-response","462","730422","0.0-3.0-0.382-0.382","<span style= ""font-size:30px; font-family: monospace"">+</span>","null","fixation","","","","",""
"","1040","audio-keyboard-response","463","731853","0.0-3.0-1.382","../audio/52-1-masc.mp3"," ","","Às","","","",""
"","979","audio-keyboard-response","464","733176","0.0-3.0-1.383","../audio/52-2-masc.mp3"," ","","vezes","","","",""
"","760","audio-keyboard-response","465","734268","0.0-3.0-1.384","../audio/52-3-masc.mp3"," ","","eu","","","",""
"","891","audio-keyboard-response","466","735475","0.0-3.0-1.385","../audio/52-4-masc.mp3"," ","","tenho","","","",""
"","1149","audio-keyboard-response","467","736975","0.0-3.0-1.386","../audio/52-5-masc.mp3"," ","","azia","","","",""
"","928","audio-keyboard-response","468","738249","0.0-3.0-1.387","../audio/52-6-masc.mp3"," ","","depois","","","",""
"","731","audio-keyboard-response","469","739295","0.0-3.0-1.388","../audio/52-7-masc.mp3"," ","","da","","","",""
"","1389","audio-keyboard-response","470","741026","0.0-3.0-1.389","../audio/52-8-masc.mp3"," ","","janta.","","","",""
"","null","html-keyboard-response","471","742300","0.0-3.0-0.390-0.390","<span style= ""font-size:30px; font-family: monospace"">+</span>","null","fixation","","","","",""
"","1021","audio-keyboard-response","472","743665","0.0-3.0-1.390","../audio/51-1-masc.mp3"," ","","Suco","","","",""
"","720","audio-keyboard-response","473","744704","0.0-3.0-1.391","../audio/51-2-masc.mp3"," ","","de","","","",""
"","1240","audio-keyboard-response","474","746269","0.0-3.0-1.392","../audio/51-3-masc.mp3"," ","","acerola","","","",""
"","720","audio-keyboard-response","475","747317","0.0-3.0-1.393","../audio/51-4-masc.mp3"," ","","é","","","",""
"","1240","audio-keyboard-response","476","748891","0.0-3.0-1.394","../audio/51-5-masc.mp3"," ","","azedo","","","",""
"","739","audio-keyboard-response","477","750171","0.0-3.0-1.395","../audio/51-6-masc.mp3"," ","","e","","","",""
"","1141","audio-keyboard-response","478","751636","0.0-3.0-1.396","../audio/51-7-masc.mp3"," ","","até","","","",""
"","1488","audio-keyboard-response","479","753446","0.0-3.0-1.397","../audio/51-8-masc.mp3"," ","","barato.","","","",""
"","null","html-keyboard-response","480","754725","0.0-3.0-0.398-0.398","<span style= ""font-size:30px; font-family: monospace"">+</span>","null","fixation","","","","",""
"","699","audio-keyboard-response","481","755772","0.0-3.0-1.398","../audio/53-1-fem.mp3"," ","","O","","","",""
"","1069","audio-keyboard-response","482","757174","0.0-3.0-1.399","../audio/53-2-fem.mp3"," ","","médico","","","",""
"","920","audio-keyboard-response","483","758419","0.0-3.0-1.400","../audio/53-3-fem.mp3"," ","","foi","","","",""
"","1408","audio-keyboard-response","484","760163","0.0-3.0-1.401","../audio/53-4-fem.mp3"," ","","bastante","","","",""
"","1349","audio-keyboard-response","485","762069","0.0-3.0-1.402","../audio/53-5-fem.mp3"," ","","preciso","","","",""
"","1301","audio-keyboard-response","486","763670","0.0-3.0-1.403","../audio/53-6-fem.mp3"," ","","durante","","","",""
"","789","audio-keyboard-response","487","764743","0.0-3.0-1.404","../audio/53-7-fem.mp3"," ","","a","","","",""
"","1531","audio-keyboard-response","488","766614","0.0-3.0-1.405","../audio/53-8-fem.mp3"," ","","cirurgia.","","","",""
"","null","html-keyboard-response","489","767882","0.0-3.0-0.406-0.406","<span style= ""font-size:30px; font-family: monospace"">+</span>","null","fixation","","","","",""
"","1099","audio-keyboard-response","490","769325","0.0-3.0-1.406","../audio/54-1-fem.mp3"," ","","Estou","","","",""
"","800","audio-keyboard-response","491","770462","0.0-3.0-1.407","../audio/54-2-fem.mp3"," ","","com","","","",""
"","1200","audio-keyboard-response","492","771999","0.0-3.0-1.408","../audio/54-3-fem.mp3"," ","","medo","","","",""
"","851","audio-keyboard-response","493","773182","0.0-3.0-1.409","../audio/54-4-fem.mp3"," ","","da","","","",""
"","1360","audio-keyboard-response","494","774870","0.0-3.0-1.410","../audio/54-5-fem.mp3"," ","","atual","","","",""
"","1619","audio-keyboard-response","495","776849","0.0-3.0-1.411","../audio/54-6-fem.mp3"," ","","organização","","","",""
"","821","audio-keyboard-response","496","777989","0.0-3.0-1.412","../audio/54-7-fem.mp3"," ","","do","","","",""
"","1320","audio-keyboard-response","497","779650","0.0-3.0-1.413","../audio/54-8-fem.mp3"," ","","país.","","","",""
"","null","html-keyboard-response","498","780927","0.0-3.0-0.414-0.414","<span style= ""font-size:30px; font-family: monospace"">+</span>","null","fixation","","","","",""
"","720","audio-keyboard-response","499","781993","0.0-3.0-1.414","../audio/55-1-masc.mp3"," ","","O","","","",""
"","1021","audio-keyboard-response","500","783350","0.0-3.0-1.415","../audio/55-2-masc.mp3"," ","","insulto","","","",""
"","1160","audio-keyboard-response","501","784857","0.0-3.0-1.416","../audio/55-3-masc.mp3"," ","","recente","","","",""
"","1000","audio-keyboard-response","502","786192","0.0-3.0-1.417","../audio/55-4-masc.mp3"," ","","causou","","","",""
"","1451","audio-keyboard-response","503","788014","0.0-3.0-1.418","../audio/55-5-masc.mp3"," ","","indignação","","","",""
"","960","audio-keyboard-response","504","789307","0.0-3.0-1.419","../audio/55-6-masc.mp3"," ","","em","","","",""
"","1008","audio-keyboard-response","505","790652","0.0-3.0-1.420","../audio/55-7-masc.mp3"," ","","todos.","","","",""
"","6642","html-keyboard-response","506","797547","0.0-3.0-2.420-0.420","<span style=""font-size:25px; font-family: monospace"">O insulto causou calmaria?</span>","n","","","O insulto causou calmaria?","null","exp-sent","false"
"","null","html-keyboard-response","507","799064","0.0-3.0-0.421-0.421","<span style= ""font-size:30px; font-family: monospace"">+</span>","null","fixation","","","","",""
"","160","audio-keyboard-response","508","799624","0.0-3.0-1.421","../audio/67-1-masc.mp3"," ","","Minha","","","",""
"","1040","audio-keyboard-response","509","801011","0.0-3.0-1.422","../audio/67-2-masc.mp3"," ","","tia","","","",""
"","1059","audio-keyboard-response","510","802404","0.0-3.0-1.423","../audio/67-3-masc.mp3"," ","","comprou","","","",""
"","720","audio-keyboard-response","511","803463","0.0-3.0-1.424","../audio/67-4-masc.mp3"," ","","um","","","",""
"","1069","audio-keyboard-response","512","804867","0.0-3.0-1.425","../audio/67-5-masc.mp3"," ","","cordão","","","",""
"","819","audio-keyboard-response","513","806012","0.0-3.0-1.426","../audio/67-6-masc.mp3"," ","","para","","","",""
"","741","audio-keyboard-response","514","807075","0.0-3.0-1.427","../audio/67-7-masc.mp3"," ","","o","","","",""
"","1389","audio-keyboard-response","515","808805","0.0-3.0-1.428","../audio/67-8-masc.mp3"," ","","varal.","","","",""
"","null","html-keyboard-response","516","810085","0.0-3.0-0.429-0.429","<span style= ""font-size:30px; font-family: monospace"">+</span>","null","fixation","","","","",""
"","888","audio-keyboard-response","517","811403","0.0-3.0-1.429","../audio/66-1-fem.mp3"," ","","Não","","","",""
"","1229","audio-keyboard-response","518","812981","0.0-3.0-1.430","../audio/66-2-fem.mp3"," ","","gosto","","","",""
"","701","audio-keyboard-response","519","813997","0.0-3.0-1.431","../audio/66-3-fem.mp3"," ","","de","","","",""
"","1291","audio-keyboard-response","520","815626","0.0-3.0-1.432","../audio/66-4-fem.mp3"," ","","gente","","","",""
"","1501","audio-keyboard-response","521","817465","0.0-3.0-1.433","../audio/66-5-fem.mp3"," ","","egoísta","","","",""
"","920","audio-keyboard-response","522","818736","0.0-3.0-1.434","../audio/66-6-fem.mp3"," ","","nem","","","",""
"","1339","audio-keyboard-response","523","820409","0.0-3.0-1.435","../audio/66-7-fem.mp3"," ","","chata.","","","",""
"","null","html-keyboard-response","524","821683","0.0-3.0-0.436-0.436","<span style= ""font-size:30px; font-family: monospace"">+</span>","null","fixation","","","","",""
"","800","audio-keyboard-response","525","822883","0.0-3.0-1.436","../audio/69-1-masc.mp3"," ","","A","","","",""
"","920","audio-keyboard-response","526","824132","0.0-3.0-1.437","../audio/69-2-masc.mp3"," ","","loja","","","",""
"","960","audio-keyboard-response","527","825433","0.0-3.0-1.438","../audio/69-3-masc.mp3"," ","","recebeu","","","",""
"","760","audio-keyboard-response","528","826546","0.0-3.0-1.439","../audio/69-4-masc.mp3"," ","","uma","","","",""
"","971","audio-keyboard-response","529","827869","0.0-3.0-1.440","../audio/69-5-masc.mp3"," ","","poltrona","","","",""
"","661","audio-keyboard-response","530","828866","0.0-3.0-1.441","../audio/69-6-masc.mp3"," ","","de","","","",""
"","1011","audio-keyboard-response","531","830219","0.0-3.0-1.442","../audio/69-7-masc.mp3"," ","","couro","","","",""
"","1219","audio-keyboard-response","532","831771","0.0-3.0-1.443","../audio/69-8-masc.mp3"," ","","preto.","","","",""
"","null","html-keyboard-response","533","833031","0.0-3.0-0.444-0.444","<span style= ""font-size:30px; font-family: monospace"">+</span>","null","fixation","","","","",""
"","941","audio-keyboard-response","534","834281","0.0-3.0-1.444","../audio/68-1-masc.mp3"," ","","Meu","","","",""
"","960","audio-keyboard-response","535","835558","0.0-3.0-1.445","../audio/68-2-masc.mp3"," ","","irmão","","","",""
"","1029","audio-keyboard-response","536","836927","0.0-3.0-1.446","../audio/68-3-masc.mp3"," ","","teve","","","",""
"","792","audio-keyboard-response","537","838037","0.0-3.0-1.447","../audio/68-4-masc.mp3"," ","","um","","","",""
"","1531","audio-keyboard-response","538","839912","0.0-3.0-1.448","../audio/68-5-masc.mp3"," ","","noivado","","","",""
"","1131","audio-keyboard-response","539","841384","0.0-3.0-1.449","../audio/68-6-masc.mp3"," ","","longo","","","",""
"","779","audio-keyboard-response","540","842487","0.0-3.0-1.450","../audio/68-7-masc.mp3"," ","","e","","","",""
"","1611","audio-keyboard-response","541","844435","0.0-3.0-1.451","../audio/68-8-masc.mp3"," ","","maravilhoso.","","","",""
"","null","html-keyboard-response","542","845690","0.0-3.0-0.452-0.452","<span style= ""font-size:30px; font-family: monospace"">+</span>","null","fixation","","","","",""
"","779","audio-keyboard-response","543","846821","0.0-3.0-1.452","../audio/70-1-fem.mp3"," ","","O","","","",""
"","989","audio-keyboard-response","544","848143","0.0-3.0-1.453","../audio/70-2-fem.mp3"," ","","meu","","","",""
"","989","audio-keyboard-response","545","849453","0.0-3.0-1.454","../audio/70-3-fem.mp3"," ","","filho","","","",""
"","731","audio-keyboard-response","546","850505","0.0-3.0-1.455","../audio/70-4-fem.mp3"," ","","tem","","","",""
"","1109","audio-keyboard-response","547","851951","0.0-3.0-1.456","../audio/70-5-fem.mp3"," ","","medo","","","",""
"","840","audio-keyboard-response","548","853117","0.0-3.0-1.457","../audio/70-6-fem.mp3"," ","","de","","","",""
"","1389","audio-keyboard-response","549","854851","0.0-3.0-1.458","../audio/70-7-fem.mp3"," ","","enguia","","","",""
"","792","audio-keyboard-response","550","855957","0.0-3.0-1.459","../audio/70-8-fem.mp3"," ","","e","","","",""
"","1251","audio-keyboard-response","551","857580","0.0-3.0-1.460","../audio/70-9-fem.mp3"," ","","beija-flor.","","","",""
"","3423","html-keyboard-response","552","861263","0.0-3.0-2.460-0.460","<span style=""font-size:25px; font-family: monospace"">O filho tem medo de tigre?</span>","n","","","O filho tem medo de tigre?","null","exp-sent","false"
"","null","html-keyboard-response","553","862783","0.0-3.0-0.461-0.461","<span style= ""font-size:30px; font-family: monospace"">+</span>","null","fixation","","","","",""
"","1051","audio-keyboard-response","554","864177","0.0-3.0-1.461","../audio/08-1-masc.mp3"," ","","A","","","",""
"","1272","audio-keyboard-response","555","865798","0.0-3.0-1.462","../audio/08-2-masc.mp3"," ","","receita","","","",""
"","1021","audio-keyboard-response","556","867156","0.0-3.0-1.463","../audio/08-3-masc.mp3"," ","","pede","","","",""
"","789","audio-keyboard-response","557","868266","0.0-3.0-1.464","../audio/08-4-masc.mp3"," ","","um","","","",""
"","1149","audio-keyboard-response","558","869769","0.0-3.0-1.465","../audio/08-5-masc.mp3"," ","","litro","","","",""
"","800","audio-keyboard-response","559","870910","0.0-3.0-1.466","../audio/08-6-masc.mp3"," ","","de","","","",""
"","1131","audio-keyboard-response","560","872386","0.0-3.0-1.467","../audio/08-7-masc.mp3"," ","","leite","","","",""
"","1731","audio-keyboard-response","561","874475","0.0-3.0-1.468","../audio/08-8-masc.mp3"," ","","integral.","","","",""
"","null","html-keyboard-response","562","875753","0.0-3.0-0.469-0.469","<span style= ""font-size:30px; font-family: monospace"">+</span>","null","fixation","","","","",""
"","952","audio-keyboard-response","563","877081","0.0-3.0-1.469","../audio/07-1-fem.mp3"," ","","Meu","","","",""
"","869","audio-keyboard-response","564","878283","0.0-3.0-1.470","../audio/07-2-fem.mp3"," ","","filho","","","",""
"","691","audio-keyboard-response","565","879297","0.0-3.0-1.471","../audio/07-3-fem.mp3"," ","","é","","","",""
"","1040","audio-keyboard-response","566","880672","0.0-3.0-1.472","../audio/07-4-fem.mp3"," ","","muito","","","",""
"","1720","audio-keyboard-response","567","882735","0.0-3.0-1.473","../audio/07-5-fem.mp3"," ","","responsável","","","",""
"","808","audio-keyboard-response","568","883888","0.0-3.0-1.474","../audio/07-6-fem.mp3"," ","","nos","","","",""
"","1371","audio-keyboard-response","569","885597","0.0-3.0-1.475","../audio/07-7-fem.mp3"," ","","estudos.","","","",""
"","null","html-keyboard-response","570","886875","0.0-3.0-0.476-0.476","<span style= ""font-size:30px; font-family: monospace"">+</span>","null","fixation","","","","",""
"","1341","audio-keyboard-response","571","888588","0.0-3.0-1.476","../audio/06-1-masc.mp3"," ","","Ouvimos","","","",""
"","829","audio-keyboard-response","572","889744","0.0-3.0-1.477","../audio/06-2-masc.mp3"," ","","a","","","",""
"","1000","audio-keyboard-response","573","891065","0.0-3.0-1.478","../audio/06-3-masc.mp3"," ","","fala","","","",""
"","779","audio-keyboard-response","574","892174","0.0-3.0-1.479","../audio/06-4-masc.mp3"," ","","do","","","",""
"","1179","audio-keyboard-response","575","893695","0.0-3.0-1.480","../audio/06-5-masc.mp3"," ","","profeta","","","",""
"","1021","audio-keyboard-response","576","895030","0.0-3.0-1.481","../audio/06-6-masc.mp3"," ","","no","","","",""
"","1248","audio-keyboard-response","577","896612","0.0-3.0-1.482","../audio/06-7-masc.mp3"," ","","púlpito","","","",""
"","920","audio-keyboard-response","578","897887","0.0-3.0-1.483","../audio/06-8-masc.mp3"," ","","da","","","",""
"","1389","audio-keyboard-response","579","899620","0.0-3.0-1.484","../audio/06-9-masc.mp3"," ","","igreja.","","","",""
"","null","html-keyboard-response","580","900892","0.0-3.0-0.485-0.485","<span style= ""font-size:30px; font-family: monospace"">+</span>","null","fixation","","","","",""
"","869","audio-keyboard-response","581","902109","0.0-3.0-1.485","../audio/09-1-masc.mp3"," ","","O","","","",""
"","1061","audio-keyboard-response","582","903512","0.0-3.0-1.486","../audio/09-2-masc.mp3"," ","","rapaz","","","",""
"","1139","audio-keyboard-response","583","904977","0.0-3.0-1.487","../audio/09-3-masc.mp3"," ","","limpou","","","",""
"","800","audio-keyboard-response","584","906108","0.0-3.0-1.488","../audio/09-4-masc.mp3"," ","","o","","","",""
"","1179","audio-keyboard-response","585","907621","0.0-3.0-1.489","../audio/09-5-masc.mp3"," ","","terreno","","","",""
"","891","audio-keyboard-response","586","908834","0.0-3.0-1.490","../audio/09-6-masc.mp3"," ","","com","","","",""
"","1040","audio-keyboard-response","587","910204","0.0-3.0-1.491","../audio/09-7-masc.mp3"," ","","uma","","","",""
"","960","audio-keyboard-response","588","911503","0.0-3.0-1.492","../audio/09-8-masc.mp3"," ","","pá.","","","",""
"","null","html-keyboard-response","589","912779","0.0-3.0-0.493-0.493","<span style= ""font-size:30px; font-family: monospace"">+</span>","null","fixation","","","","",""
"","731","audio-keyboard-response","590","913854","0.0-3.0-1.493","../audio/10-1-masc.mp3"," ","","O","","","",""
"","1280","audio-keyboard-response","591","915467","0.0-3.0-1.494","../audio/10-2-masc.mp3"," ","","pássaro","","","",""
"","1008","audio-keyboard-response","592","916812","0.0-3.0-1.495","../audio/10-3-masc.mp3"," ","","azul","","","",""
"","1029","audio-keyboard-response","593","918376","0.0-3.0-1.496","../audio/10-4-masc.mp3"," ","","estava","","","",""
"","1000","audio-keyboard-response","594","919713","0.0-3.0-1.497","../audio/10-5-masc.mp3"," ","","vivo","","","",""
"","789","audio-keyboard-response","595","920831","0.0-3.0-1.498","../audio/10-6-masc.mp3"," ","","e","","","",""
"","939","audio-keyboard-response","596","922101","0.0-3.0-1.499","../audio/10-7-masc.mp3"," ","","em","","","",""
"","1931","audio-keyboard-response","597","924376","0.0-3.0-1.500","../audio/10-8-masc.mp3"," ","","segurança.","","","",""
"","5931","html-keyboard-response","598","930572","0.0-3.0-2.500-0.500","<span style=""font-size:25px; font-family: monospace"">O pássaro vermelho estava em segurança?</span>","n","","","O pássaro vermelho estava em segurança?","null","exp-sent","false"
"","null","html-keyboard-response","599","932087","0.0-3.0-0.501-0.501","<span style= ""font-size:30px; font-family: monospace"">+</span>","null","fixation","","","","",""
"","899","audio-keyboard-response","600","933322","0.0-3.0-1.501","../audio/46-1-masc.mp3"," ","","Meu","","","",""
"","920","audio-keyboard-response","601","934577","0.0-3.0-1.502","../audio/46-2-masc.mp3"," ","","primo","","","",""
"","1021","audio-keyboard-response","602","935945","0.0-3.0-1.503","../audio/46-3-masc.mp3"," ","","estava","","","",""
"","971","audio-keyboard-response","603","937235","0.0-3.0-1.504","../audio/46-4-masc.mp3"," ","","muito","","","",""
"","1320","audio-keyboard-response","604","938884","0.0-3.0-1.505","../audio/46-5-masc.mp3"," ","","deprimido","","","",""
"","851","audio-keyboard-response","605","940056","0.0-3.0-1.506","../audio/46-6-masc.mp3"," ","","no","","","",""
"","1400","audio-keyboard-response","606","941784","0.0-3.0-1.507","../audio/46-7-masc.mp3"," ","","inverno.","","","",""
"","null","html-keyboard-response","607","943051","0.0-3.0-0.508-0.508","<span style= ""font-size:30px; font-family: monospace"">+</span>","null","fixation","","","","",""
"","899","audio-keyboard-response","608","944287","0.0-3.0-1.508","../audio/49-1-fem.mp3"," ","","Eu","","","",""
"","891","audio-keyboard-response","609","945507","0.0-3.0-1.509","../audio/49-2-fem.mp3"," ","","quero","","","",""
"","829","audio-keyboard-response","610","946651","0.0-3.0-1.510","../audio/49-3-fem.mp3"," ","","um","","","",""
"","1309","audio-keyboard-response","611","948306","0.0-3.0-1.511","../audio/49-4-fem.mp3"," ","","lanche","","","",""
"","1389","audio-keyboard-response","612","950059","0.0-3.0-1.512","../audio/49-5-fem.mp3"," ","","duplo","","","",""
"","880","audio-keyboard-response","613","951266","0.0-3.0-1.513","../audio/49-6-fem.mp3"," ","","e","","","",""
"","909","audio-keyboard-response","614","952499","0.0-3.0-1.514","../audio/49-7-fem.mp3"," ","","um","","","",""
"","1619","audio-keyboard-response","615","954455","0.0-3.0-1.515","../audio/49-8-fem.mp3"," ","","suco.","","","",""
"","null","html-keyboard-response","616","955727","0.0-3.0-0.516-0.516","<span style= ""font-size:30px; font-family: monospace"">+</span>","null","fixation","","","","",""
"","1051","audio-keyboard-response","617","957117","0.0-3.0-1.516","../audio/48-1-masc.mp3"," ","","Ela","","","",""
"","971","audio-keyboard-response","618","958426","0.0-3.0-1.517","../audio/48-2-masc.mp3"," ","","come","","","",""
"","1139","audio-keyboard-response","619","959902","0.0-3.0-1.518","../audio/48-3-masc.mp3"," ","","feijão","","","",""
"","869","audio-keyboard-response","620","961088","0.0-3.0-1.519","../audio/48-4-masc.mp3"," ","","com","","","",""
"","1149","audio-keyboard-response","621","962592","0.0-3.0-1.520","../audio/48-5-masc.mp3"," ","","arroz","","","",""
"","1021","audio-keyboard-response","622","963953","0.0-3.0-1.521","../audio/48-6-masc.mp3"," ","","todos","","","",""
"","851","audio-keyboard-response","623","965134","0.0-3.0-1.522","../audio/48-7-masc.mp3"," ","","os","","","",""
"","1771","audio-keyboard-response","624","967222","0.0-3.0-1.523","../audio/48-8-masc.mp3"," ","","dias.","","","",""
"","null","html-keyboard-response","625","968489","0.0-3.0-0.524-0.524","<span style= ""font-size:30px; font-family: monospace"">+</span>","null","fixation","","","","",""
"","859","audio-keyboard-response","626","969685","0.0-3.0-1.524","../audio/47-1-masc.mp3"," ","","O","","","",""
"","1000","audio-keyboard-response","627","971015","0.0-3.0-1.525","../audio/47-2-masc.mp3"," ","","tio","","","",""
"","1208","audio-keyboard-response","628","972564","0.0-3.0-1.526","../audio/47-3-masc.mp3"," ","","recusou","","","",""
"","848","audio-keyboard-response","629","973728","0.0-3.0-1.527","../audio/47-4-masc.mp3"," ","","a","","","",""
"","1389","audio-keyboard-response","630","975462","0.0-3.0-1.528","../audio/47-5-masc.mp3"," ","","sobremesa","","","",""
"","979","audio-keyboard-response","631","976769","0.0-3.0-1.529","../audio/47-6-masc.mp3"," ","","no","","","",""
"","2459","audio-keyboard-response","632","979572","0.0-3.0-1.530","../audio/47-7-masc.mp3"," ","","almoço.","","","",""
"","null","html-keyboard-response","633","980842","0.0-3.0-0.531-0.531","<span style= ""font-size:30px; font-family: monospace"">+</span>","null","fixation","","","","",""
"","859","audio-keyboard-response","634","982095","0.0-3.0-1.531","../audio/50-1-fem.mp3"," ","","O","","","",""
"","1232","audio-keyboard-response","635","983673","0.0-3.0-1.532","../audio/50-2-fem.mp3"," ","","pássaro","","","",""
"","1200","audio-keyboard-response","636","985207","0.0-3.0-1.533","../audio/50-3-fem.mp3"," ","","fugiu","","","",""
"","891","audio-keyboard-response","637","986425","0.0-3.0-1.534","../audio/50-4-fem.mp3"," ","","da","","","",""
"","1259","audio-keyboard-response","638","988016","0.0-3.0-1.535","../audio/50-5-fem.mp3"," ","","gaiola","","","",""
"","960","audio-keyboard-response","639","989303","0.0-3.0-1.536","../audio/50-6-fem.mp3"," ","","pela","","","",""
"","1728","audio-keyboard-response","640","991366","0.0-3.0-1.537","../audio/50-7-fem.mp3"," ","","portinhola.","","","",""
"","4720","html-keyboard-response","641","996345","0.0-3.0-2.537-0.537","<span style=""font-size:25px; font-family: monospace"">O pássaro fugiu da gaiola?</span>","s","","","O pássaro fugiu da gaiola?","null","exp-sent","false"
"","null","html-keyboard-response","642","997866","0.0-3.0-0.538-0.538","<span style= ""font-size:30px; font-family: monospace"">+</span>","null","fixation","","","","",""
"","941","audio-keyboard-response","643","999162","0.0-3.0-1.538","../audio/36-1-masc.mp3"," ","","Meu","","","",""
"","1051","audio-keyboard-response","644","1000543","0.0-3.0-1.539","../audio/36-2-masc.mp3"," ","","tio","","","",""
"","1109","audio-keyboard-response","645","1001979","0.0-3.0-1.540","../audio/36-3-masc.mp3"," ","","comprou","","","",""
"","741","audio-keyboard-response","646","1003073","0.0-3.0-1.541","../audio/36-4-masc.mp3"," ","","um","","","",""
"","1061","audio-keyboard-response","647","1004476","0.0-3.0-1.542","../audio/36-5-masc.mp3"," ","","filtro","","","",""
"","779","audio-keyboard-response","648","1005578","0.0-3.0-1.543","../audio/36-6-masc.mp3"," ","","de","","","",""
"","1141","audio-keyboard-response","649","1007037","0.0-3.0-1.544","../audio/36-7-masc.mp3"," ","","água","","","",""
"","720","audio-keyboard-response","650","1008090","0.0-3.0-1.545","../audio/36-8-masc.mp3"," ","","hoje","","","",""
"","1269","audio-keyboard-response","651","1009683","0.0-3.0-1.546","../audio/36-9-masc.mp3"," ","","cedo.","","","",""
"","null","html-keyboard-response","652","1010960","0.0-3.0-0.547-0.547","<span style= ""font-size:30px; font-family: monospace"">+</span>","null","fixation","","","","",""
"","749","audio-keyboard-response","653","1012043","0.0-3.0-1.547","../audio/39-1-fem.mp3"," ","","O","","","",""
"","1320","audio-keyboard-response","654","1013707","0.0-3.0-1.548","../audio/39-2-fem.mp3"," ","","conselho","","","",""
"","899","audio-keyboard-response","655","1014922","0.0-3.0-1.549","../audio/39-3-fem.mp3"," ","","foi","","","",""
"","1171","audio-keyboard-response","656","1016440","0.0-3.0-1.550","../audio/39-4-fem.mp3"," ","","muito","","","",""
"","1101","audio-keyboard-response","657","1017868","0.0-3.0-1.551","../audio/39-5-fem.mp3"," ","","útil","","","",""
"","928","audio-keyboard-response","658","1019125","0.0-3.0-1.552","../audio/39-6-fem.mp3"," ","","para","","","",""
"","1160","audio-keyboard-response","659","1020620","0.0-3.0-1.553","../audio/39-7-fem.mp3"," ","","minha","","","",""
"","1149","audio-keyboard-response","660","1022101","0.0-3.0-1.554","../audio/39-8-fem.mp3"," ","","tia.","","","",""
"","null","html-keyboard-response","661","1023359","0.0-3.0-0.555-0.555","<span style= ""font-size:30px; font-family: monospace"">+</span>","null","fixation","","","","",""
"","760","audio-keyboard-response","662","1024468","0.0-3.0-1.555","../audio/38-1-fem.mp3"," ","","A","","","",""
"","1291","audio-keyboard-response","663","1026106","0.0-3.0-1.556","../audio/38-2-fem.mp3"," ","","empresa","","","",""
"","968","audio-keyboard-response","664","1027412","0.0-3.0-1.557","../audio/38-3-fem.mp3"," ","","criou","","","",""
"","760","audio-keyboard-response","665","1028520","0.0-3.0-1.558","../audio/38-4-fem.mp3"," ","","a","","","",""
"","1400","audio-keyboard-response","666","1030267","0.0-3.0-1.559","../audio/38-5-fem.mp3"," ","","patente","","","",""
"","760","audio-keyboard-response","667","1031354","0.0-3.0-1.560","../audio/38-6-fem.mp3"," ","","da","","","",""
"","1869","audio-keyboard-response","668","1033565","0.0-3.0-1.561","../audio/38-7-fem.mp3"," ","","frigideira.","","","",""
"","null","html-keyboard-response","669","1034841","0.0-3.0-0.562-0.562","<span style= ""font-size:30px; font-family: monospace"">+</span>","null","fixation","","","","",""
"","909","audio-keyboard-response","670","1036126","0.0-3.0-1.562","../audio/37-1-masc.mp3"," ","","Eu","","","",""
"","1061","audio-keyboard-response","671","1037516","0.0-3.0-1.563","../audio/37-2-masc.mp3"," ","","adoro","","","",""
"","1048","audio-keyboard-response","672","1038889","0.0-3.0-1.564","../audio/37-3-masc.mp3"," ","","suco","","","",""
"","771","audio-keyboard-response","673","1039985","0.0-3.0-1.565","../audio/37-4-masc.mp3"," ","","de","","","",""
"","1032","audio-keyboard-response","674","1041559","0.0-3.0-1.566","../audio/37-5-masc.mp3"," ","","manga","","","",""
"","819","audio-keyboard-response","675","1042700","0.0-3.0-1.567","../audio/37-6-masc.mp3"," ","","com","","","",""
"","1411","audio-keyboard-response","676","1044439","0.0-3.0-1.568","../audio/37-7-masc.mp3"," ","","hortelã.","","","",""
"","null","html-keyboard-response","677","1045705","0.0-3.0-0.569-0.569","<span style= ""font-size:30px; font-family: monospace"">+</span>","null","fixation","","","","",""
"","781","audio-keyboard-response","678","1046826","0.0-3.0-1.569","../audio/40-1-masc.mp3"," ","","O","","","",""
"","1048","audio-keyboard-response","679","1048211","0.0-3.0-1.570","../audio/40-2-masc.mp3"," ","","jogo","","","",""
"","1139","audio-keyboard-response","680","1049684","0.0-3.0-1.571","../audio/40-3-masc.mp3"," ","","falava","","","",""
"","861","audio-keyboard-response","681","1050864","0.0-3.0-1.572","../audio/40-4-masc.mp3"," ","","de","","","",""
"","1421","audio-keyboard-response","682","1052628","0.0-3.0-1.573","../audio/40-5-masc.mp3"," ","","fantasia","","","",""
"","1048","audio-keyboard-response","683","1054009","0.0-3.0-1.574","../audio/40-6-masc.mp3"," ","","e","","","",""
"","821","audio-keyboard-response","684","1055155","0.0-3.0-1.575","../audio/40-7-masc.mp3"," ","","de","","","",""
"","1480","audio-keyboard-response","685","1056990","0.0-3.0-1.576","../audio/40-8-masc.mp3"," ","","aventura.","","","",""
"","3724","html-keyboard-response","686","1060965","0.0-3.0-2.576-0.576","<span style=""font-size:25px; font-family: monospace"">O jogo tinha fantasia e aventura?</span>","n","","","O jogo tinha fantasia e aventura?","null","exp-sent","false"
"","null","html-keyboard-response","687","1062487","0.0-3.0-0.577-0.577","<span style= ""font-size:30px; font-family: monospace"">+</span>","null","fixation","","","","",""
"","829","audio-keyboard-response","688","1063671","0.0-3.0-1.577","../audio/19-1-fem.mp3"," ","","O","","","",""
"","1280","audio-keyboard-response","689","1065286","0.0-3.0-1.578","../audio/19-2-fem.mp3"," ","","menino","","","",""
"","1099","audio-keyboard-response","690","1066688","0.0-3.0-1.579","../audio/19-3-fem.mp3"," ","","ganhou","","","",""
"","709","audio-keyboard-response","691","1067729","0.0-3.0-1.580","../audio/19-4-fem.mp3"," ","","uma","","","",""
"","880","audio-keyboard-response","692","1068944","0.0-3.0-1.581","../audio/19-5-fem.mp3"," ","","bala","","","",""
"","1080","audio-keyboard-response","693","1070368","0.0-3.0-1.582","../audio/19-6-fem.mp3"," ","","depois","","","",""
"","749","audio-keyboard-response","694","1071451","0.0-3.0-1.583","../audio/19-7-fem.mp3"," ","","do","","","",""
"","1629","audio-keyboard-response","695","1073414","0.0-3.0-1.584","../audio/19-8-fem.mp3"," ","","almoço.","","","",""
"","null","html-keyboard-response","696","1074677","0.0-3.0-0.585-0.585","<span style= ""font-size:30px; font-family: monospace"">+</span>","null","fixation","","","","",""
"","1149","audio-keyboard-response","697","1076178","0.0-3.0-1.585","../audio/17-1-fem.mp3"," ","","Falaram","","","",""
"","728","audio-keyboard-response","698","1077250","0.0-3.0-1.586","../audio/17-2-fem.mp3"," ","","da","","","",""
"","971","audio-keyboard-response","699","1078558","0.0-3.0-1.587","../audio/17-3-fem.mp3"," ","","lei","","","",""
"","899","audio-keyboard-response","700","1079782","0.0-3.0-1.588","../audio/17-4-fem.mp3"," ","","no","","","",""
"","1512","audio-keyboard-response","701","1081636","0.0-3.0-1.589","../audio/17-5-fem.mp3"," ","","ministério","","","",""
"","1280","audio-keyboard-response","702","1083260","0.0-3.0-1.590","../audio/17-6-fem.mp3"," ","","diversas","","","",""
"","1221","audio-keyboard-response","703","1084825","0.0-3.0-1.591","../audio/17-7-fem.mp3"," ","","vezes.","","","",""
"","null","html-keyboard-response","704","1086081","0.0-3.0-0.592-0.592","<span style= ""font-size:30px; font-family: monospace"">+</span>","null","fixation","","","","",""
"","840","audio-keyboard-response","705","1087270","0.0-3.0-1.592","../audio/18-1-masc.mp3"," ","","O","","","",""
"","1029","audio-keyboard-response","706","1088644","0.0-3.0-1.593","../audio/18-2-masc.mp3"," ","","enredo","","","",""
"","901","audio-keyboard-response","707","1089880","0.0-3.0-1.594","../audio/18-3-masc.mp3"," ","","traz","","","",""
"","781","audio-keyboard-response","708","1090995","0.0-3.0-1.595","../audio/18-4-masc.mp3"," ","","um","","","",""
"","1069","audio-keyboard-response","709","1092405","0.0-3.0-1.596","../audio/18-5-masc.mp3"," ","","dragão","","","",""
"","1080","audio-keyboard-response","710","1093821","0.0-3.0-1.597","../audio/18-6-masc.mp3"," ","","forte","","","",""
"","749","audio-keyboard-response","711","1094900","0.0-3.0-1.598","../audio/18-7-masc.mp3"," ","","e","","","",""
"","1421","audio-keyboard-response","712","1096664","0.0-3.0-1.599","../audio/18-8-masc.mp3"," ","","solitário.","","","",""
"","null","html-keyboard-response","713","1097930","0.0-3.0-0.600-0.600","<span style= ""font-size:30px; font-family: monospace"">+</span>","null","fixation","","","","",""
"","731","audio-keyboard-response","714","1099019","0.0-3.0-1.600","../audio/16-1-masc.mp3"," ","","Eu","","","",""
"","989","audio-keyboard-response","715","1100342","0.0-3.0-1.601","../audio/16-2-masc.mp3"," ","","nunca","","","",""
"","1080","audio-keyboard-response","716","1101766","0.0-3.0-1.602","../audio/16-3-masc.mp3"," ","","conheci","","","",""
"","832","audio-keyboard-response","717","1102919","0.0-3.0-1.603","../audio/16-4-masc.mp3"," ","","um","","","",""
"","1240","audio-keyboard-response","718","1104501","0.0-3.0-1.604","../audio/16-5-masc.mp3"," ","","general","","","",""
"","851","audio-keyboard-response","719","1105682","0.0-3.0-1.605","../audio/16-6-masc.mp3"," ","","do","","","",""
"","1531","audio-keyboard-response","720","1107555","0.0-3.0-1.606","../audio/16-7-masc.mp3"," ","","exército.","","","",""
"","null","html-keyboard-response","721","1108829","0.0-3.0-0.607-0.607","<span style= ""font-size:30px; font-family: monospace"">+</span>","null","fixation","","","","",""
"","712","audio-keyboard-response","722","1109882","0.0-3.0-1.607","../audio/20-1-masc.mp3"," ","","O","","","",""
"","1040","audio-keyboard-response","723","1111254","0.0-3.0-1.608","../audio/20-2-masc.mp3"," ","","colega","","","",""
"","1171","audio-keyboard-response","724","1112744","0.0-3.0-1.609","../audio/20-3-masc.mp3"," ","","parecia","","","",""
"","1059","audio-keyboard-response","725","1114143","0.0-3.0-1.610","../audio/20-4-masc.mp3"," ","","muito","","","",""
"","1440","audio-keyboard-response","726","1115929","0.0-3.0-1.611","../audio/20-5-masc.mp3"," ","","gripado","","","",""
"","981","audio-keyboard-response","727","1117242","0.0-3.0-1.612","../audio/20-6-masc.mp3"," ","","no","","","",""
"","960","audio-keyboard-response","728","1118539","0.0-3.0-1.613","../audio/20-7-masc.mp3"," ","","dia","","","",""
"","1621","audio-keyboard-response","729","1120509","0.0-3.0-1.614","../audio/20-8-masc.mp3"," ","","anterior.","","","",""
"","3518","html-keyboard-response","730","1124279","0.0-3.0-2.614-0.614","<span style=""font-size:25px; font-family: monospace"">O colega parecia muito gripado?</span>","s","","","O colega parecia muito gripado?","null","exp-sent","false"
"[{""page_index"":0,""viewing_time"":5181}]","5181","instructions","731","1129972","0.0-4.0","","","","","","","",""
