[
	{
		"view_history": [
			{
				"page_index": 0,
				"viewing_time": 36270
			}
		],
		"rt": 36271,
		"trial_type": "instructions",
		"trial_index": 0,
		"time_elapsed": 36276,
		"internal_node_id": "0.0-0.0"
	},
	{
		"rt": null,
		"stimulus": "+",
		"response": null,
		"trial_type": "html-keyboard-response",
		"trial_index": 1,
		"time_elapsed": 36901,
		"internal_node_id": "0.0-1.0-0.0"
	},
	{
		"rt": 15237,
		"stimulus": "órgão",
		"response": "s",
		"class": "null",
		"status": "noncog",
		"answer": "word",
		"correct": "S",
		"trial": "prac",
		"letters": "null",
		"trial_type": "html-keyboard-response",
		"trial_index": 2,
		"time_elapsed": 52142,
		"internal_node_id": "0.0-1.0-1.0"
	},
	{
		"rt": null,
		"stimulus": "+",
		"response": null,
		"trial_type": "html-keyboard-response",
		"trial_index": 3,
		"time_elapsed": 52655,
		"internal_node_id": "0.0-1.0-0.1"
	},
	{
		"rt": 3863,
		"stimulus": "oliva",
		"response": "s",
		"class": "null",
		"status": "cog",
		"answer": "word",
		"correct": "S",
		"trial": "prac",
		"letters": "null",
		"trial_type": "html-keyboard-response",
		"trial_index": 4,
		"time_elapsed": 56519,
		"internal_node_id": "0.0-1.0-1.1"
	},
	{
		"rt": null,
		"stimulus": "+",
		"response": null,
		"trial_type": "html-keyboard-response",
		"trial_index": 5,
		"time_elapsed": 57034,
		"internal_node_id": "0.0-1.0-0.2"
	},
	{
		"rt": 2886,
		"stimulus": "plibar",
		"response": "n",
		"class": "null",
		"status": "noncog",
		"answer": "pseudo",
		"correct": "N",
		"trial": "prac",
		"letters": "null",
		"trial_type": "html-keyboard-response",
		"trial_index": 6,
		"time_elapsed": 59922,
		"internal_node_id": "0.0-1.0-1.2"
	},
	{
		"rt": null,
		"stimulus": "+",
		"response": null,
		"trial_type": "html-keyboard-response",
		"trial_index": 7,
		"time_elapsed": 60433,
		"internal_node_id": "0.0-1.0-0.3"
	},
	{
		"rt": 7901,
		"stimulus": "crante",
		"response": "n",
		"class": "null",
		"status": "noncog",
		"answer": "pseudo",
		"correct": "N",
		"trial": "prac",
		"letters": "null",
		"trial_type": "html-keyboard-response",
		"trial_index": 8,
		"time_elapsed": 68335,
		"internal_node_id": "0.0-1.0-1.3"
	},
	{
		"rt": null,
		"stimulus": "+",
		"response": null,
		"trial_type": "html-keyboard-response",
		"trial_index": 9,
		"time_elapsed": 68848,
		"internal_node_id": "0.0-1.0-0.4"
	},
	{
		"rt": 5672,
		"stimulus": "chassi",
		"response": "s",
		"class": "null",
		"status": "cog",
		"answer": "word",
		"correct": "S",
		"trial": "prac",
		"letters": "null",
		"trial_type": "html-keyboard-response",
		"trial_index": 10,
		"time_elapsed": 74527,
		"internal_node_id": "0.0-1.0-1.4"
	},
	{
		"rt": null,
		"stimulus": "+",
		"response": null,
		"trial_type": "html-keyboard-response",
		"trial_index": 11,
		"time_elapsed": 75042,
		"internal_node_id": "0.0-1.0-0.5"
	},
	{
		"rt": 3861,
		"stimulus": "daja",
		"response": "n",
		"class": "null",
		"status": "noncog",
		"answer": "pseudo",
		"correct": "N",
		"trial": "prac",
		"letters": "null",
		"trial_type": "html-keyboard-response",
		"trial_index": 12,
		"time_elapsed": 78906,
		"internal_node_id": "0.0-1.0-1.5"
	},
	{
		"rt": null,
		"stimulus": "+",
		"response": null,
		"trial_type": "html-keyboard-response",
		"trial_index": 13,
		"time_elapsed": 79411,
		"internal_node_id": "0.0-1.0-0.6"
	},
	{
		"rt": 15077,
		"stimulus": "calmaria",
		"response": "n",
		"class": "null",
		"status": "noncog",
		"answer": "word",
		"correct": "S",
		"trial": "prac",
		"letters": "null",
		"trial_type": "html-keyboard-response",
		"trial_index": 14,
		"time_elapsed": 94490,
		"internal_node_id": "0.0-1.0-1.6"
	},
	{
		"view_history": [
			{
				"page_index": 0,
				"viewing_time": 60484
			}
		],
		"rt": 60484,
		"trial_type": "instructions",
		"trial_index": 15,
		"time_elapsed": 154975,
		"internal_node_id": "0.0-2.0"
	},
	{
		"rt": null,
		"stimulus": "+",
		"response": null,
		"trial_type": "html-keyboard-response",
		"trial_index": 16,
		"time_elapsed": 155599,
		"internal_node_id": "0.0-3.0-0.0"
	},
	{
		"rt": 2355,
		"stimulus": "aivões",
		"response": "n",
		"class": "null",
		"status": "noncog",
		"answer": "pseudo",
		"correct": "N",
		"trial": "exp",
		"letters": "null",
		"trial_type": "html-keyboard-response",
		"trial_index": 17,
		"time_elapsed": 157958,
		"internal_node_id": "0.0-3.0-1.0"
	},
	{
		"rt": null,
		"stimulus": "+",
		"response": null,
		"trial_type": "html-keyboard-response",
		"trial_index": 18,
		"time_elapsed": 158461,
		"internal_node_id": "0.0-3.0-0.1"
	},
	{
		"rt": 1382,
		"stimulus": "tio",
		"response": "s",
		"class": "n",
		"status": "noncog",
		"answer": "word",
		"correct": "S",
		"trial": "exp",
		"letters": "3",
		"trial_type": "html-keyboard-response",
		"trial_index": 19,
		"time_elapsed": 159846,
		"internal_node_id": "0.0-3.0-1.1"
	},
	{
		"rt": null,
		"stimulus": "+",
		"response": null,
		"trial_type": "html-keyboard-response",
		"trial_index": 20,
		"time_elapsed": 160350,
		"internal_node_id": "0.0-3.0-0.2"
	},
	{
		"rt": 2948,
		"stimulus": "usfiga",
		"response": "n",
		"class": "null",
		"status": "noncog",
		"answer": "pseudo",
		"correct": "N",
		"trial": "exp",
		"letters": "null",
		"trial_type": "html-keyboard-response",
		"trial_index": 21,
		"time_elapsed": 163300,
		"internal_node_id": "0.0-3.0-1.2"
	},
	{
		"rt": null,
		"stimulus": "+",
		"response": null,
		"trial_type": "html-keyboard-response",
		"trial_index": 22,
		"time_elapsed": 163817,
		"internal_node_id": "0.0-3.0-0.3"
	},
	{
		"rt": 1709,
		"stimulus": "aemaça",
		"response": "n",
		"class": "null",
		"status": "noncog",
		"answer": "pseudo",
		"correct": "N",
		"trial": "exp",
		"letters": "null",
		"trial_type": "html-keyboard-response",
		"trial_index": 23,
		"time_elapsed": 165527,
		"internal_node_id": "0.0-3.0-1.3"
	},
	{
		"rt": null,
		"stimulus": "+",
		"response": null,
		"trial_type": "html-keyboard-response",
		"trial_index": 24,
		"time_elapsed": 166042,
		"internal_node_id": "0.0-3.0-0.4"
	},
	{
		"rt": 3138,
		"stimulus": "resmungar",
		"response": "s",
		"class": "v",
		"status": "noncog",
		"answer": "word",
		"correct": "S",
		"trial": "exp",
		"letters": "9",
		"trial_type": "html-keyboard-response",
		"trial_index": 25,
		"time_elapsed": 169181,
		"internal_node_id": "0.0-3.0-1.4"
	},
	{
		"rt": null,
		"stimulus": "+",
		"response": null,
		"trial_type": "html-keyboard-response",
		"trial_index": 26,
		"time_elapsed": 169688,
		"internal_node_id": "0.0-3.0-0.5"
	},
	{
		"rt": 1204,
		"stimulus": "grátis",
		"response": "s",
		"class": "a",
		"status": "cog",
		"answer": "word",
		"correct": "S",
		"trial": "exp",
		"letters": "6",
		"trial_type": "html-keyboard-response",
		"trial_index": 27,
		"time_elapsed": 170894,
		"internal_node_id": "0.0-3.0-1.5"
	},
	{
		"rt": null,
		"stimulus": "+",
		"response": null,
		"trial_type": "html-keyboard-response",
		"trial_index": 28,
		"time_elapsed": 171406,
		"internal_node_id": "0.0-3.0-0.6"
	},
	{
		"rt": 1274,
		"stimulus": "bancada",
		"response": "s",
		"class": "n",
		"status": "noncog",
		"answer": "word",
		"correct": "S",
		"trial": "exp",
		"letters": "7",
		"trial_type": "html-keyboard-response",
		"trial_index": 29,
		"time_elapsed": 172680,
		"internal_node_id": "0.0-3.0-1.6"
	},
	{
		"rt": null,
		"stimulus": "+",
		"response": null,
		"trial_type": "html-keyboard-response",
		"trial_index": 30,
		"time_elapsed": 173183,
		"internal_node_id": "0.0-3.0-0.7"
	},
	{
		"rt": 1374,
		"stimulus": "afual",
		"response": "n",
		"class": "null",
		"status": "noncog",
		"answer": "pseudo",
		"correct": "N",
		"trial": "exp",
		"letters": "null",
		"trial_type": "html-keyboard-response",
		"trial_index": 31,
		"time_elapsed": 174559,
		"internal_node_id": "0.0-3.0-1.7"
	},
	{
		"rt": null,
		"stimulus": "+",
		"response": null,
		"trial_type": "html-keyboard-response",
		"trial_index": 32,
		"time_elapsed": 175065,
		"internal_node_id": "0.0-3.0-0.8"
	},
	{
		"rt": 1228,
		"stimulus": "filosofia",
		"response": "s",
		"class": "n",
		"status": "cog",
		"answer": "word",
		"correct": "S",
		"trial": "exp",
		"letters": "9",
		"trial_type": "html-keyboard-response",
		"trial_index": 33,
		"time_elapsed": 176294,
		"internal_node_id": "0.0-3.0-1.8"
	},
	{
		"rt": null,
		"stimulus": "+",
		"response": null,
		"trial_type": "html-keyboard-response",
		"trial_index": 34,
		"time_elapsed": 176799,
		"internal_node_id": "0.0-3.0-0.9"
	},
	{
		"rt": 1650,
		"stimulus": "ofreta",
		"response": "s",
		"class": "null",
		"status": "noncog",
		"answer": "pseudo",
		"correct": "N",
		"trial": "exp",
		"letters": "null",
		"trial_type": "html-keyboard-response",
		"trial_index": 35,
		"time_elapsed": 178451,
		"internal_node_id": "0.0-3.0-1.9"
	},
	{
		"rt": null,
		"stimulus": "+",
		"response": null,
		"trial_type": "html-keyboard-response",
		"trial_index": 36,
		"time_elapsed": 178954,
		"internal_node_id": "0.0-3.0-0.10"
	},
	{
		"rt": 2758,
		"stimulus": "fasdas",
		"response": "n",
		"class": "null",
		"status": "noncog",
		"answer": "pseudo",
		"correct": "N",
		"trial": "exp",
		"letters": "null",
		"trial_type": "html-keyboard-response",
		"trial_index": 37,
		"time_elapsed": 181715,
		"internal_node_id": "0.0-3.0-1.10"
	},
	{
		"rt": null,
		"stimulus": "+",
		"response": null,
		"trial_type": "html-keyboard-response",
		"trial_index": 38,
		"time_elapsed": 182216,
		"internal_node_id": "0.0-3.0-0.11"
	},
	{
		"rt": 1980,
		"stimulus": "sanque",
		"response": "n",
		"class": "null",
		"status": "noncog",
		"answer": "pseudo",
		"correct": "N",
		"trial": "exp",
		"letters": "null",
		"trial_type": "html-keyboard-response",
		"trial_index": 39,
		"time_elapsed": 184197,
		"internal_node_id": "0.0-3.0-1.11"
	},
	{
		"rt": null,
		"stimulus": "+",
		"response": null,
		"trial_type": "html-keyboard-response",
		"trial_index": 40,
		"time_elapsed": 184713,
		"internal_node_id": "0.0-3.0-0.12"
	},
	{
		"rt": 1719,
		"stimulus": "dilheira",
		"response": "n",
		"class": "null",
		"status": "noncog",
		"answer": "pseudo",
		"correct": "N",
		"trial": "exp",
		"letters": "null",
		"trial_type": "html-keyboard-response",
		"trial_index": 41,
		"time_elapsed": 186434,
		"internal_node_id": "0.0-3.0-1.12"
	},
	{
		"rt": null,
		"stimulus": "+",
		"response": null,
		"trial_type": "html-keyboard-response",
		"trial_index": 42,
		"time_elapsed": 186947,
		"internal_node_id": "0.0-3.0-0.13"
	},
	{
		"rt": 1572,
		"stimulus": "ênclio",
		"response": "n",
		"class": "null",
		"status": "noncog",
		"answer": "pseudo",
		"correct": "N",
		"trial": "exp",
		"letters": "null",
		"trial_type": "html-keyboard-response",
		"trial_index": 43,
		"time_elapsed": 188522,
		"internal_node_id": "0.0-3.0-1.13"
	},
	{
		"rt": null,
		"stimulus": "+",
		"response": null,
		"trial_type": "html-keyboard-response",
		"trial_index": 44,
		"time_elapsed": 189029,
		"internal_node_id": "0.0-3.0-0.14"
	},
	{
		"rt": 1890,
		"stimulus": "nome",
		"response": "s",
		"class": "n",
		"status": "cog",
		"answer": "word",
		"correct": "S",
		"trial": "exp",
		"letters": "4",
		"trial_type": "html-keyboard-response",
		"trial_index": 45,
		"time_elapsed": 190921,
		"internal_node_id": "0.0-3.0-1.14"
	},
	{
		"rt": null,
		"stimulus": "+",
		"response": null,
		"trial_type": "html-keyboard-response",
		"trial_index": 46,
		"time_elapsed": 191436,
		"internal_node_id": "0.0-3.0-0.15"
	},
	{
		"rt": 1491,
		"stimulus": "rédesa",
		"response": "s",
		"class": "null",
		"status": "noncog",
		"answer": "pseudo",
		"correct": "N",
		"trial": "exp",
		"letters": "null",
		"trial_type": "html-keyboard-response",
		"trial_index": 47,
		"time_elapsed": 192927,
		"internal_node_id": "0.0-3.0-1.15"
	},
	{
		"rt": null,
		"stimulus": "+",
		"response": null,
		"trial_type": "html-keyboard-response",
		"trial_index": 48,
		"time_elapsed": 193443,
		"internal_node_id": "0.0-3.0-0.16"
	},
	{
		"rt": 1007,
		"stimulus": "fofo",
		"response": "s",
		"class": "a",
		"status": "noncog",
		"answer": "word",
		"correct": "S",
		"trial": "exp",
		"letters": "4",
		"trial_type": "html-keyboard-response",
		"trial_index": 49,
		"time_elapsed": 194450,
		"internal_node_id": "0.0-3.0-1.16"
	},
	{
		"rt": null,
		"stimulus": "+",
		"response": null,
		"trial_type": "html-keyboard-response",
		"trial_index": 50,
		"time_elapsed": 194960,
		"internal_node_id": "0.0-3.0-0.17"
	},
	{
		"rt": 1027,
		"stimulus": "revista",
		"response": "s",
		"class": "n",
		"status": "cog",
		"answer": "word",
		"correct": "S",
		"trial": "exp",
		"letters": "7",
		"trial_type": "html-keyboard-response",
		"trial_index": 51,
		"time_elapsed": 195987,
		"internal_node_id": "0.0-3.0-1.17"
	},
	{
		"rt": null,
		"stimulus": "+",
		"response": null,
		"trial_type": "html-keyboard-response",
		"trial_index": 52,
		"time_elapsed": 196489,
		"internal_node_id": "0.0-3.0-0.18"
	},
	{
		"rt": 1187,
		"stimulus": "comércio",
		"response": "s",
		"class": "n",
		"status": "noncog",
		"answer": "word",
		"correct": "S",
		"trial": "exp",
		"letters": "8",
		"trial_type": "html-keyboard-response",
		"trial_index": 53,
		"time_elapsed": 197677,
		"internal_node_id": "0.0-3.0-1.18"
	},
	{
		"rt": null,
		"stimulus": "+",
		"response": null,
		"trial_type": "html-keyboard-response",
		"trial_index": 54,
		"time_elapsed": 198189,
		"internal_node_id": "0.0-3.0-0.19"
	},
	{
		"rt": 1281,
		"stimulus": "refletir",
		"response": "s",
		"class": "v",
		"status": "cog",
		"answer": "word",
		"correct": "S",
		"trial": "exp",
		"letters": "8",
		"trial_type": "html-keyboard-response",
		"trial_index": 55,
		"time_elapsed": 199472,
		"internal_node_id": "0.0-3.0-1.19"
	},
	{
		"rt": null,
		"stimulus": "+",
		"response": null,
		"trial_type": "html-keyboard-response",
		"trial_index": 56,
		"time_elapsed": 199989,
		"internal_node_id": "0.0-3.0-0.20"
	},
	{
		"rt": 2135,
		"stimulus": "uchães",
		"response": "n",
		"class": "null",
		"status": "noncog",
		"answer": "pseudo",
		"correct": "N",
		"trial": "exp",
		"letters": "null",
		"trial_type": "html-keyboard-response",
		"trial_index": 57,
		"time_elapsed": 202125,
		"internal_node_id": "0.0-3.0-1.20"
	},
	{
		"rt": null,
		"stimulus": "+",
		"response": null,
		"trial_type": "html-keyboard-response",
		"trial_index": 58,
		"time_elapsed": 202639,
		"internal_node_id": "0.0-3.0-0.21"
	},
	{
		"rt": 989,
		"stimulus": "ejerro",
		"response": "n",
		"class": "null",
		"status": "noncog",
		"answer": "pseudo",
		"correct": "N",
		"trial": "exp",
		"letters": "null",
		"trial_type": "html-keyboard-response",
		"trial_index": 59,
		"time_elapsed": 203629,
		"internal_node_id": "0.0-3.0-1.21"
	},
	{
		"rt": null,
		"stimulus": "+",
		"response": null,
		"trial_type": "html-keyboard-response",
		"trial_index": 60,
		"time_elapsed": 204134,
		"internal_node_id": "0.0-3.0-0.22"
	},
	{
		"rt": 2366,
		"stimulus": "cascata",
		"response": "n",
		"class": "n",
		"status": "noncog",
		"answer": "word",
		"correct": "S",
		"trial": "exp",
		"letters": "7",
		"trial_type": "html-keyboard-response",
		"trial_index": 61,
		"time_elapsed": 206500,
		"internal_node_id": "0.0-3.0-1.22"
	},
	{
		"rt": null,
		"stimulus": "+",
		"response": null,
		"trial_type": "html-keyboard-response",
		"trial_index": 62,
		"time_elapsed": 207004,
		"internal_node_id": "0.0-3.0-0.23"
	},
	{
		"rt": 1055,
		"stimulus": "pedaço",
		"response": "s",
		"class": "n",
		"status": "noncog",
		"answer": "word",
		"correct": "S",
		"trial": "exp",
		"letters": "6",
		"trial_type": "html-keyboard-response",
		"trial_index": 63,
		"time_elapsed": 208059,
		"internal_node_id": "0.0-3.0-1.23"
	},
	{
		"rt": null,
		"stimulus": "+",
		"response": null,
		"trial_type": "html-keyboard-response",
		"trial_index": 64,
		"time_elapsed": 208568,
		"internal_node_id": "0.0-3.0-0.24"
	},
	{
		"rt": 1276,
		"stimulus": "hipócrita",
		"response": "s",
		"class": "a",
		"status": "noncog",
		"answer": "word",
		"correct": "S",
		"trial": "exp",
		"letters": "9",
		"trial_type": "html-keyboard-response",
		"trial_index": 65,
		"time_elapsed": 209846,
		"internal_node_id": "0.0-3.0-1.24"
	},
	{
		"rt": null,
		"stimulus": "+",
		"response": null,
		"trial_type": "html-keyboard-response",
		"trial_index": 66,
		"time_elapsed": 210352,
		"internal_node_id": "0.0-3.0-0.25"
	},
	{
		"rt": 1493,
		"stimulus": "conjerto",
		"response": "s",
		"class": "null",
		"status": "noncog",
		"answer": "pseudo",
		"correct": "N",
		"trial": "exp",
		"letters": "null",
		"trial_type": "html-keyboard-response",
		"trial_index": 67,
		"time_elapsed": 211846,
		"internal_node_id": "0.0-3.0-1.25"
	},
	{
		"rt": null,
		"stimulus": "+",
		"response": null,
		"trial_type": "html-keyboard-response",
		"trial_index": 68,
		"time_elapsed": 212359,
		"internal_node_id": "0.0-3.0-0.26"
	},
	{
		"rt": 1080,
		"stimulus": "perdão",
		"response": "s",
		"class": "n",
		"status": "noncog",
		"answer": "word",
		"correct": "S",
		"trial": "exp",
		"letters": "6",
		"trial_type": "html-keyboard-response",
		"trial_index": 69,
		"time_elapsed": 213440,
		"internal_node_id": "0.0-3.0-1.26"
	},
	{
		"rt": null,
		"stimulus": "+",
		"response": null,
		"trial_type": "html-keyboard-response",
		"trial_index": 70,
		"time_elapsed": 213950,
		"internal_node_id": "0.0-3.0-0.27"
	},
	{
		"rt": 1242,
		"stimulus": "bracos",
		"response": "s",
		"class": "null",
		"status": "noncog",
		"answer": "pseudo",
		"correct": "N",
		"trial": "exp",
		"letters": "null",
		"trial_type": "html-keyboard-response",
		"trial_index": 71,
		"time_elapsed": 215194,
		"internal_node_id": "0.0-3.0-1.27"
	},
	{
		"rt": null,
		"stimulus": "+",
		"response": null,
		"trial_type": "html-keyboard-response",
		"trial_index": 72,
		"time_elapsed": 215705,
		"internal_node_id": "0.0-3.0-0.28"
	},
	{
		"rt": 2677,
		"stimulus": "promeção",
		"response": "n",
		"class": "null",
		"status": "noncog",
		"answer": "pseudo",
		"correct": "N",
		"trial": "exp",
		"letters": "null",
		"trial_type": "html-keyboard-response",
		"trial_index": 73,
		"time_elapsed": 218382,
		"internal_node_id": "0.0-3.0-1.28"
	},
	{
		"rt": null,
		"stimulus": "+",
		"response": null,
		"trial_type": "html-keyboard-response",
		"trial_index": 74,
		"time_elapsed": 218898,
		"internal_node_id": "0.0-3.0-0.29"
	},
	{
		"rt": 1154,
		"stimulus": "mudança",
		"response": "s",
		"class": "n",
		"status": "noncog",
		"answer": "word",
		"correct": "S",
		"trial": "exp",
		"letters": "7",
		"trial_type": "html-keyboard-response",
		"trial_index": 75,
		"time_elapsed": 220053,
		"internal_node_id": "0.0-3.0-1.29"
	},
	{
		"rt": null,
		"stimulus": "+",
		"response": null,
		"trial_type": "html-keyboard-response",
		"trial_index": 76,
		"time_elapsed": 220561,
		"internal_node_id": "0.0-3.0-0.30"
	},
	{
		"rt": 1382,
		"stimulus": "loaco",
		"response": "n",
		"class": "null",
		"status": "noncog",
		"answer": "pseudo",
		"correct": "N",
		"trial": "exp",
		"letters": "null",
		"trial_type": "html-keyboard-response",
		"trial_index": 77,
		"time_elapsed": 221944,
		"internal_node_id": "0.0-3.0-1.30"
	},
	{
		"rt": null,
		"stimulus": "+",
		"response": null,
		"trial_type": "html-keyboard-response",
		"trial_index": 78,
		"time_elapsed": 222454,
		"internal_node_id": "0.0-3.0-0.31"
	},
	{
		"rt": 1192,
		"stimulus": "abieso",
		"response": "n",
		"class": "null",
		"status": "noncog",
		"answer": "pseudo",
		"correct": "N",
		"trial": "exp",
		"letters": "null",
		"trial_type": "html-keyboard-response",
		"trial_index": 79,
		"time_elapsed": 223647,
		"internal_node_id": "0.0-3.0-1.31"
	},
	{
		"rt": null,
		"stimulus": "+",
		"response": null,
		"trial_type": "html-keyboard-response",
		"trial_index": 80,
		"time_elapsed": 224163,
		"internal_node_id": "0.0-3.0-0.32"
	},
	{
		"rt": 1745,
		"stimulus": "bagunceira",
		"response": "s",
		"class": "a",
		"status": "noncog",
		"answer": "word",
		"correct": "S",
		"trial": "exp",
		"letters": "10",
		"trial_type": "html-keyboard-response",
		"trial_index": 81,
		"time_elapsed": 225908,
		"internal_node_id": "0.0-3.0-1.32"
	},
	{
		"rt": null,
		"stimulus": "+",
		"response": null,
		"trial_type": "html-keyboard-response",
		"trial_index": 82,
		"time_elapsed": 226423,
		"internal_node_id": "0.0-3.0-0.33"
	},
	{
		"rt": 1604,
		"stimulus": "enedro",
		"response": "n",
		"class": "null",
		"status": "noncog",
		"answer": "pseudo",
		"correct": "N",
		"trial": "exp",
		"letters": "null",
		"trial_type": "html-keyboard-response",
		"trial_index": 83,
		"time_elapsed": 228029,
		"internal_node_id": "0.0-3.0-1.33"
	},
	{
		"rt": null,
		"stimulus": "+",
		"response": null,
		"trial_type": "html-keyboard-response",
		"trial_index": 84,
		"time_elapsed": 228534,
		"internal_node_id": "0.0-3.0-0.34"
	},
	{
		"rt": 1560,
		"stimulus": "salpicado",
		"response": "s",
		"class": "a",
		"status": "noncog",
		"answer": "word",
		"correct": "S",
		"trial": "exp",
		"letters": "9",
		"trial_type": "html-keyboard-response",
		"trial_index": 85,
		"time_elapsed": 230094,
		"internal_node_id": "0.0-3.0-1.34"
	},
	{
		"rt": null,
		"stimulus": "+",
		"response": null,
		"trial_type": "html-keyboard-response",
		"trial_index": 86,
		"time_elapsed": 230607,
		"internal_node_id": "0.0-3.0-0.35"
	},
	{
		"rt": 1039,
		"stimulus": "independente",
		"response": "s",
		"class": "a",
		"status": "noncog",
		"answer": "word",
		"correct": "S",
		"trial": "exp",
		"letters": "12",
		"trial_type": "html-keyboard-response",
		"trial_index": 87,
		"time_elapsed": 231647,
		"internal_node_id": "0.0-3.0-1.35"
	},
	{
		"rt": null,
		"stimulus": "+",
		"response": null,
		"trial_type": "html-keyboard-response",
		"trial_index": 88,
		"time_elapsed": 232161,
		"internal_node_id": "0.0-3.0-0.36"
	},
	{
		"rt": 961,
		"stimulus": "glória",
		"response": "s",
		"class": "n",
		"status": "cog",
		"answer": "word",
		"correct": "S",
		"trial": "exp",
		"letters": "6",
		"trial_type": "html-keyboard-response",
		"trial_index": 89,
		"time_elapsed": 233123,
		"internal_node_id": "0.0-3.0-1.36"
	},
	{
		"rt": null,
		"stimulus": "+",
		"response": null,
		"trial_type": "html-keyboard-response",
		"trial_index": 90,
		"time_elapsed": 233635,
		"internal_node_id": "0.0-3.0-0.37"
	},
	{
		"rt": 866,
		"stimulus": "reduzir",
		"response": "s",
		"class": "v",
		"status": "cog",
		"answer": "word",
		"correct": "S",
		"trial": "exp",
		"letters": "7",
		"trial_type": "html-keyboard-response",
		"trial_index": 91,
		"time_elapsed": 234501,
		"internal_node_id": "0.0-3.0-1.37"
	},
	{
		"rt": null,
		"stimulus": "+",
		"response": null,
		"trial_type": "html-keyboard-response",
		"trial_index": 92,
		"time_elapsed": 235013,
		"internal_node_id": "0.0-3.0-0.38"
	},
	{
		"rt": 1561,
		"stimulus": "faínas",
		"response": "n",
		"class": "null",
		"status": "noncog",
		"answer": "pseudo",
		"correct": "N",
		"trial": "exp",
		"letters": "null",
		"trial_type": "html-keyboard-response",
		"trial_index": 93,
		"time_elapsed": 236575,
		"internal_node_id": "0.0-3.0-1.38"
	},
	{
		"rt": null,
		"stimulus": "+",
		"response": null,
		"trial_type": "html-keyboard-response",
		"trial_index": 94,
		"time_elapsed": 237078,
		"internal_node_id": "0.0-3.0-0.39"
	},
	{
		"rt": 989,
		"stimulus": "nervoso",
		"response": "s",
		"class": "a",
		"status": "noncog",
		"answer": "word",
		"correct": "S",
		"trial": "exp",
		"letters": "7",
		"trial_type": "html-keyboard-response",
		"trial_index": 95,
		"time_elapsed": 238068,
		"internal_node_id": "0.0-3.0-1.39"
	},
	{
		"rt": null,
		"stimulus": "+",
		"response": null,
		"trial_type": "html-keyboard-response",
		"trial_index": 96,
		"time_elapsed": 238575,
		"internal_node_id": "0.0-3.0-0.40"
	},
	{
		"rt": 2010,
		"stimulus": "senareta",
		"response": "n",
		"class": "null",
		"status": "noncog",
		"answer": "pseudo",
		"correct": "N",
		"trial": "exp",
		"letters": "null",
		"trial_type": "html-keyboard-response",
		"trial_index": 97,
		"time_elapsed": 240587,
		"internal_node_id": "0.0-3.0-1.40"
	},
	{
		"rt": null,
		"stimulus": "+",
		"response": null,
		"trial_type": "html-keyboard-response",
		"trial_index": 98,
		"time_elapsed": 241102,
		"internal_node_id": "0.0-3.0-0.41"
	},
	{
		"rt": 1763,
		"stimulus": "pitada",
		"response": "s",
		"class": "n",
		"status": "noncog",
		"answer": "word",
		"correct": "S",
		"trial": "exp",
		"letters": "6",
		"trial_type": "html-keyboard-response",
		"trial_index": 99,
		"time_elapsed": 242867,
		"internal_node_id": "0.0-3.0-1.41"
	},
	{
		"rt": null,
		"stimulus": "+",
		"response": null,
		"trial_type": "html-keyboard-response",
		"trial_index": 100,
		"time_elapsed": 243371,
		"internal_node_id": "0.0-3.0-0.42"
	},
	{
		"rt": 1543,
		"stimulus": "bambu",
		"response": "s",
		"class": "n",
		"status": "cog",
		"answer": "word",
		"correct": "S",
		"trial": "exp",
		"letters": "5",
		"trial_type": "html-keyboard-response",
		"trial_index": 101,
		"time_elapsed": 244915,
		"internal_node_id": "0.0-3.0-1.42"
	},
	{
		"rt": null,
		"stimulus": "+",
		"response": null,
		"trial_type": "html-keyboard-response",
		"trial_index": 102,
		"time_elapsed": 245417,
		"internal_node_id": "0.0-3.0-0.43"
	},
	{
		"rt": 1748,
		"stimulus": "manfa",
		"response": "n",
		"class": "null",
		"status": "noncog",
		"answer": "pseudo",
		"correct": "N",
		"trial": "exp",
		"letters": "null",
		"trial_type": "html-keyboard-response",
		"trial_index": 103,
		"time_elapsed": 247165,
		"internal_node_id": "0.0-3.0-1.43"
	},
	{
		"rt": null,
		"stimulus": "+",
		"response": null,
		"trial_type": "html-keyboard-response",
		"trial_index": 104,
		"time_elapsed": 247677,
		"internal_node_id": "0.0-3.0-0.44"
	},
	{
		"rt": 1228,
		"stimulus": "tartos",
		"response": "s",
		"class": "null",
		"status": "noncog",
		"answer": "pseudo",
		"correct": "N",
		"trial": "exp",
		"letters": "null",
		"trial_type": "html-keyboard-response",
		"trial_index": 105,
		"time_elapsed": 248904,
		"internal_node_id": "0.0-3.0-1.44"
	},
	{
		"rt": null,
		"stimulus": "+",
		"response": null,
		"trial_type": "html-keyboard-response",
		"trial_index": 106,
		"time_elapsed": 249412,
		"internal_node_id": "0.0-3.0-0.45"
	},
	{
		"rt": 818,
		"stimulus": "frotes",
		"response": "s",
		"class": "null",
		"status": "noncog",
		"answer": "pseudo",
		"correct": "N",
		"trial": "exp",
		"letters": "null",
		"trial_type": "html-keyboard-response",
		"trial_index": 107,
		"time_elapsed": 250231,
		"internal_node_id": "0.0-3.0-1.45"
	},
	{
		"rt": null,
		"stimulus": "+",
		"response": null,
		"trial_type": "html-keyboard-response",
		"trial_index": 108,
		"time_elapsed": 250734,
		"internal_node_id": "0.0-3.0-0.46"
	},
	{
		"rt": 2716,
		"stimulus": "montanha",
		"response": "s",
		"class": "n",
		"status": "cog",
		"answer": "word",
		"correct": "S",
		"trial": "exp",
		"letters": "8",
		"trial_type": "html-keyboard-response",
		"trial_index": 109,
		"time_elapsed": 253452,
		"internal_node_id": "0.0-3.0-1.46"
	},
	{
		"rt": null,
		"stimulus": "+",
		"response": null,
		"trial_type": "html-keyboard-response",
		"trial_index": 110,
		"time_elapsed": 253961,
		"internal_node_id": "0.0-3.0-0.47"
	},
	{
		"rt": 1596,
		"stimulus": "âgnulo",
		"response": "n",
		"class": "null",
		"status": "noncog",
		"answer": "pseudo",
		"correct": "N",
		"trial": "exp",
		"letters": "null",
		"trial_type": "html-keyboard-response",
		"trial_index": 111,
		"time_elapsed": 255558,
		"internal_node_id": "0.0-3.0-1.47"
	},
	{
		"rt": null,
		"stimulus": "+",
		"response": null,
		"trial_type": "html-keyboard-response",
		"trial_index": 112,
		"time_elapsed": 256065,
		"internal_node_id": "0.0-3.0-0.48"
	},
	{
		"rt": 960,
		"stimulus": "imitar",
		"response": "s",
		"class": "v",
		"status": "cog",
		"answer": "word",
		"correct": "S",
		"trial": "exp",
		"letters": "6",
		"trial_type": "html-keyboard-response",
		"trial_index": 113,
		"time_elapsed": 257027,
		"internal_node_id": "0.0-3.0-1.48"
	},
	{
		"rt": null,
		"stimulus": "+",
		"response": null,
		"trial_type": "html-keyboard-response",
		"trial_index": 114,
		"time_elapsed": 257535,
		"internal_node_id": "0.0-3.0-0.49"
	},
	{
		"rt": 1110,
		"stimulus": "cravo",
		"response": "s",
		"class": "n",
		"status": "noncog",
		"answer": "word",
		"correct": "S",
		"trial": "exp",
		"letters": "5",
		"trial_type": "html-keyboard-response",
		"trial_index": 115,
		"time_elapsed": 258646,
		"internal_node_id": "0.0-3.0-1.49"
	},
	{
		"rt": null,
		"stimulus": "+",
		"response": null,
		"trial_type": "html-keyboard-response",
		"trial_index": 116,
		"time_elapsed": 259160,
		"internal_node_id": "0.0-3.0-0.50"
	},
	{
		"rt": 931,
		"stimulus": "esperar",
		"response": "s",
		"class": "v",
		"status": "cog",
		"answer": "word",
		"correct": "S",
		"trial": "exp",
		"letters": "7",
		"trial_type": "html-keyboard-response",
		"trial_index": 117,
		"time_elapsed": 260092,
		"internal_node_id": "0.0-3.0-1.50"
	},
	{
		"rt": null,
		"stimulus": "+",
		"response": null,
		"trial_type": "html-keyboard-response",
		"trial_index": 118,
		"time_elapsed": 260600,
		"internal_node_id": "0.0-3.0-0.51"
	},
	{
		"rt": 1316,
		"stimulus": "nivelado",
		"response": "s",
		"class": "a",
		"status": "cog",
		"answer": "word",
		"correct": "S",
		"trial": "exp",
		"letters": "8",
		"trial_type": "html-keyboard-response",
		"trial_index": 119,
		"time_elapsed": 261916,
		"internal_node_id": "0.0-3.0-1.51"
	},
	{
		"rt": null,
		"stimulus": "+",
		"response": null,
		"trial_type": "html-keyboard-response",
		"trial_index": 120,
		"time_elapsed": 262438,
		"internal_node_id": "0.0-3.0-0.52"
	},
	{
		"rt": 1399,
		"stimulus": "extravagante",
		"response": "s",
		"class": "a",
		"status": "cog",
		"answer": "word",
		"correct": "S",
		"trial": "exp",
		"letters": "12",
		"trial_type": "html-keyboard-response",
		"trial_index": 121,
		"time_elapsed": 263836,
		"internal_node_id": "0.0-3.0-1.52"
	},
	{
		"rt": null,
		"stimulus": "+",
		"response": null,
		"trial_type": "html-keyboard-response",
		"trial_index": 122,
		"time_elapsed": 264343,
		"internal_node_id": "0.0-3.0-0.53"
	},
	{
		"rt": 725,
		"stimulus": "morar",
		"response": "s",
		"class": "v",
		"status": "noncog",
		"answer": "word",
		"correct": "S",
		"trial": "exp",
		"letters": "5",
		"trial_type": "html-keyboard-response",
		"trial_index": 123,
		"time_elapsed": 265069,
		"internal_node_id": "0.0-3.0-1.53"
	},
	{
		"rt": null,
		"stimulus": "+",
		"response": null,
		"trial_type": "html-keyboard-response",
		"trial_index": 124,
		"time_elapsed": 265573,
		"internal_node_id": "0.0-3.0-0.54"
	},
	{
		"rt": 1200,
		"stimulus": "vervas",
		"response": "s",
		"class": "null",
		"status": "noncog",
		"answer": "pseudo",
		"correct": "N",
		"trial": "exp",
		"letters": "null",
		"trial_type": "html-keyboard-response",
		"trial_index": 125,
		"time_elapsed": 266774,
		"internal_node_id": "0.0-3.0-1.54"
	},
	{
		"rt": null,
		"stimulus": "+",
		"response": null,
		"trial_type": "html-keyboard-response",
		"trial_index": 126,
		"time_elapsed": 267277,
		"internal_node_id": "0.0-3.0-0.55"
	},
	{
		"rt": 738,
		"stimulus": "atrasar",
		"response": "s",
		"class": "v",
		"status": "noncog",
		"answer": "word",
		"correct": "S",
		"trial": "exp",
		"letters": "7",
		"trial_type": "html-keyboard-response",
		"trial_index": 127,
		"time_elapsed": 268015,
		"internal_node_id": "0.0-3.0-1.55"
	},
	{
		"rt": null,
		"stimulus": "+",
		"response": null,
		"trial_type": "html-keyboard-response",
		"trial_index": 128,
		"time_elapsed": 268519,
		"internal_node_id": "0.0-3.0-0.56"
	},
	{
		"rt": 768,
		"stimulus": "perbas",
		"response": "s",
		"class": "null",
		"status": "noncog",
		"answer": "pseudo",
		"correct": "N",
		"trial": "exp",
		"letters": "null",
		"trial_type": "html-keyboard-response",
		"trial_index": 129,
		"time_elapsed": 269286,
		"internal_node_id": "0.0-3.0-1.56"
	},
	{
		"rt": null,
		"stimulus": "+",
		"response": null,
		"trial_type": "html-keyboard-response",
		"trial_index": 130,
		"time_elapsed": 269799,
		"internal_node_id": "0.0-3.0-0.57"
	},
	{
		"rt": 834,
		"stimulus": "avenas",
		"response": "s",
		"class": "null",
		"status": "noncog",
		"answer": "pseudo",
		"correct": "N",
		"trial": "exp",
		"letters": "null",
		"trial_type": "html-keyboard-response",
		"trial_index": 131,
		"time_elapsed": 270634,
		"internal_node_id": "0.0-3.0-1.57"
	},
	{
		"rt": null,
		"stimulus": "+",
		"response": null,
		"trial_type": "html-keyboard-response",
		"trial_index": 132,
		"time_elapsed": 271134,
		"internal_node_id": "0.0-3.0-0.58"
	},
	{
		"rt": 1338,
		"stimulus": "manais",
		"response": "s",
		"class": "null",
		"status": "noncog",
		"answer": "pseudo",
		"correct": "N",
		"trial": "exp",
		"letters": "null",
		"trial_type": "html-keyboard-response",
		"trial_index": 133,
		"time_elapsed": 272472,
		"internal_node_id": "0.0-3.0-1.58"
	},
	{
		"rt": null,
		"stimulus": "+",
		"response": null,
		"trial_type": "html-keyboard-response",
		"trial_index": 134,
		"time_elapsed": 272976,
		"internal_node_id": "0.0-3.0-0.59"
	},
	{
		"rt": 1064,
		"stimulus": "civil",
		"response": "s",
		"class": "a",
		"status": "cog",
		"answer": "word",
		"correct": "S",
		"trial": "exp",
		"letters": "5",
		"trial_type": "html-keyboard-response",
		"trial_index": 135,
		"time_elapsed": 274041,
		"internal_node_id": "0.0-3.0-1.59"
	},
	{
		"rt": null,
		"stimulus": "+",
		"response": null,
		"trial_type": "html-keyboard-response",
		"trial_index": 136,
		"time_elapsed": 274559,
		"internal_node_id": "0.0-3.0-0.60"
	},
	{
		"rt": 763,
		"stimulus": "crutas",
		"response": "s",
		"class": "null",
		"status": "noncog",
		"answer": "pseudo",
		"correct": "N",
		"trial": "exp",
		"letters": "null",
		"trial_type": "html-keyboard-response",
		"trial_index": 137,
		"time_elapsed": 275322,
		"internal_node_id": "0.0-3.0-1.60"
	},
	{
		"rt": null,
		"stimulus": "+",
		"response": null,
		"trial_type": "html-keyboard-response",
		"trial_index": 138,
		"time_elapsed": 275839,
		"internal_node_id": "0.0-3.0-0.61"
	},
	{
		"rt": 1402,
		"stimulus": "pritas",
		"response": "s",
		"class": "null",
		"status": "noncog",
		"answer": "pseudo",
		"correct": "N",
		"trial": "exp",
		"letters": "null",
		"trial_type": "html-keyboard-response",
		"trial_index": 139,
		"time_elapsed": 277241,
		"internal_node_id": "0.0-3.0-1.61"
	},
	{
		"rt": null,
		"stimulus": "+",
		"response": null,
		"trial_type": "html-keyboard-response",
		"trial_index": 140,
		"time_elapsed": 277754,
		"internal_node_id": "0.0-3.0-0.62"
	},
	{
		"rt": 927,
		"stimulus": "oper",
		"response": "s",
		"class": "null",
		"status": "noncog",
		"answer": "pseudo",
		"correct": "N",
		"trial": "exp",
		"letters": "null",
		"trial_type": "html-keyboard-response",
		"trial_index": 141,
		"time_elapsed": 278683,
		"internal_node_id": "0.0-3.0-1.62"
	},
	{
		"rt": null,
		"stimulus": "+",
		"response": null,
		"trial_type": "html-keyboard-response",
		"trial_index": 142,
		"time_elapsed": 279197,
		"internal_node_id": "0.0-3.0-0.63"
	},
	{
		"rt": 1847,
		"stimulus": "motre",
		"response": "n",
		"class": "null",
		"status": "noncog",
		"answer": "pseudo",
		"correct": "N",
		"trial": "exp",
		"letters": "null",
		"trial_type": "html-keyboard-response",
		"trial_index": 143,
		"time_elapsed": 281046,
		"internal_node_id": "0.0-3.0-1.63"
	},
	{
		"rt": null,
		"stimulus": "+",
		"response": null,
		"trial_type": "html-keyboard-response",
		"trial_index": 144,
		"time_elapsed": 281550,
		"internal_node_id": "0.0-3.0-0.64"
	},
	{
		"rt": 967,
		"stimulus": "verceja",
		"response": "s",
		"class": "null",
		"status": "noncog",
		"answer": "pseudo",
		"correct": "N",
		"trial": "exp",
		"letters": "null",
		"trial_type": "html-keyboard-response",
		"trial_index": 145,
		"time_elapsed": 282518,
		"internal_node_id": "0.0-3.0-1.64"
	},
	{
		"rt": null,
		"stimulus": "+",
		"response": null,
		"trial_type": "html-keyboard-response",
		"trial_index": 146,
		"time_elapsed": 283034,
		"internal_node_id": "0.0-3.0-0.65"
	},
	{
		"rt": 1753,
		"stimulus": "trenos",
		"response": "s",
		"class": "null",
		"status": "noncog",
		"answer": "pseudo",
		"correct": "N",
		"trial": "exp",
		"letters": "null",
		"trial_type": "html-keyboard-response",
		"trial_index": 147,
		"time_elapsed": 284787,
		"internal_node_id": "0.0-3.0-1.65"
	},
	{
		"rt": null,
		"stimulus": "+",
		"response": null,
		"trial_type": "html-keyboard-response",
		"trial_index": 148,
		"time_elapsed": 285300,
		"internal_node_id": "0.0-3.0-0.66"
	},
	{
		"rt": 1461,
		"stimulus": "selir",
		"response": "n",
		"class": "null",
		"status": "noncog",
		"answer": "pseudo",
		"correct": "N",
		"trial": "exp",
		"letters": "null",
		"trial_type": "html-keyboard-response",
		"trial_index": 149,
		"time_elapsed": 286762,
		"internal_node_id": "0.0-3.0-1.66"
	},
	{
		"rt": null,
		"stimulus": "+",
		"response": null,
		"trial_type": "html-keyboard-response",
		"trial_index": 150,
		"time_elapsed": 287264,
		"internal_node_id": "0.0-3.0-0.67"
	},
	{
		"rt": 837,
		"stimulus": "euorpa",
		"response": "n",
		"class": "null",
		"status": "noncog",
		"answer": "pseudo",
		"correct": "N",
		"trial": "exp",
		"letters": "null",
		"trial_type": "html-keyboard-response",
		"trial_index": 151,
		"time_elapsed": 288101,
		"internal_node_id": "0.0-3.0-1.67"
	},
	{
		"rt": null,
		"stimulus": "+",
		"response": null,
		"trial_type": "html-keyboard-response",
		"trial_index": 152,
		"time_elapsed": 288614,
		"internal_node_id": "0.0-3.0-0.68"
	},
	{
		"rt": 1508,
		"stimulus": "pega-pega",
		"response": "s",
		"class": "n",
		"status": "noncog",
		"answer": "word",
		"correct": "S",
		"trial": "exp",
		"letters": "8",
		"trial_type": "html-keyboard-response",
		"trial_index": 153,
		"time_elapsed": 290124,
		"internal_node_id": "0.0-3.0-1.68"
	},
	{
		"rt": null,
		"stimulus": "+",
		"response": null,
		"trial_type": "html-keyboard-response",
		"trial_index": 154,
		"time_elapsed": 290638,
		"internal_node_id": "0.0-3.0-0.69"
	},
	{
		"rt": 1614,
		"stimulus": "quenzina",
		"response": "s",
		"class": "null",
		"status": "noncog",
		"answer": "pseudo",
		"correct": "N",
		"trial": "exp",
		"letters": "null",
		"trial_type": "html-keyboard-response",
		"trial_index": 155,
		"time_elapsed": 292254,
		"internal_node_id": "0.0-3.0-1.69"
	},
	{
		"rt": null,
		"stimulus": "+",
		"response": null,
		"trial_type": "html-keyboard-response",
		"trial_index": 156,
		"time_elapsed": 292765,
		"internal_node_id": "0.0-3.0-0.70"
	},
	{
		"rt": 1319,
		"stimulus": "fusbão",
		"response": "s",
		"class": "null",
		"status": "noncog",
		"answer": "pseudo",
		"correct": "N",
		"trial": "exp",
		"letters": "null",
		"trial_type": "html-keyboard-response",
		"trial_index": 157,
		"time_elapsed": 294085,
		"internal_node_id": "0.0-3.0-1.70"
	},
	{
		"rt": null,
		"stimulus": "+",
		"response": null,
		"trial_type": "html-keyboard-response",
		"trial_index": 158,
		"time_elapsed": 294593,
		"internal_node_id": "0.0-3.0-0.71"
	},
	{
		"rt": 904,
		"stimulus": "animado",
		"response": "s",
		"class": "a",
		"status": "noncog",
		"answer": "word",
		"correct": "S",
		"trial": "exp",
		"letters": "7",
		"trial_type": "html-keyboard-response",
		"trial_index": 159,
		"time_elapsed": 295499,
		"internal_node_id": "0.0-3.0-1.71"
	},
	{
		"rt": null,
		"stimulus": "+",
		"response": null,
		"trial_type": "html-keyboard-response",
		"trial_index": 160,
		"time_elapsed": 296001,
		"internal_node_id": "0.0-3.0-0.72"
	},
	{
		"rt": 1480,
		"stimulus": "morija",
		"response": "s",
		"class": "null",
		"status": "noncog",
		"answer": "pseudo",
		"correct": "N",
		"trial": "exp",
		"letters": "null",
		"trial_type": "html-keyboard-response",
		"trial_index": 161,
		"time_elapsed": 297482,
		"internal_node_id": "0.0-3.0-1.72"
	},
	{
		"rt": null,
		"stimulus": "+",
		"response": null,
		"trial_type": "html-keyboard-response",
		"trial_index": 162,
		"time_elapsed": 297986,
		"internal_node_id": "0.0-3.0-0.73"
	},
	{
		"rt": 714,
		"stimulus": "promessa",
		"response": "s",
		"class": "n",
		"status": "noncog",
		"answer": "word",
		"correct": "S",
		"trial": "exp",
		"letters": "8",
		"trial_type": "html-keyboard-response",
		"trial_index": 163,
		"time_elapsed": 298699,
		"internal_node_id": "0.0-3.0-1.73"
	},
	{
		"rt": null,
		"stimulus": "+",
		"response": null,
		"trial_type": "html-keyboard-response",
		"trial_index": 164,
		"time_elapsed": 299207,
		"internal_node_id": "0.0-3.0-0.74"
	},
	{
		"rt": 1718,
		"stimulus": "usnado",
		"response": "n",
		"class": "null",
		"status": "noncog",
		"answer": "pseudo",
		"correct": "N",
		"trial": "exp",
		"letters": "null",
		"trial_type": "html-keyboard-response",
		"trial_index": 165,
		"time_elapsed": 300925,
		"internal_node_id": "0.0-3.0-1.74"
	},
	{
		"rt": null,
		"stimulus": "+",
		"response": null,
		"trial_type": "html-keyboard-response",
		"trial_index": 166,
		"time_elapsed": 301431,
		"internal_node_id": "0.0-3.0-0.75"
	},
	{
		"rt": 833,
		"stimulus": "matinal",
		"response": "s",
		"class": "a",
		"status": "cog",
		"answer": "word",
		"correct": "S",
		"trial": "exp",
		"letters": "7",
		"trial_type": "html-keyboard-response",
		"trial_index": 167,
		"time_elapsed": 302263,
		"internal_node_id": "0.0-3.0-1.75"
	},
	{
		"rt": null,
		"stimulus": "+",
		"response": null,
		"trial_type": "html-keyboard-response",
		"trial_index": 168,
		"time_elapsed": 302773,
		"internal_node_id": "0.0-3.0-0.76"
	},
	{
		"rt": 1569,
		"stimulus": "pimada",
		"response": "n",
		"class": "null",
		"status": "noncog",
		"answer": "pseudo",
		"correct": "N",
		"trial": "exp",
		"letters": "null",
		"trial_type": "html-keyboard-response",
		"trial_index": 169,
		"time_elapsed": 304343,
		"internal_node_id": "0.0-3.0-1.76"
	},
	{
		"rt": null,
		"stimulus": "+",
		"response": null,
		"trial_type": "html-keyboard-response",
		"trial_index": 170,
		"time_elapsed": 304858,
		"internal_node_id": "0.0-3.0-0.77"
	},
	{
		"rt": 626,
		"stimulus": "telefone",
		"response": "s",
		"class": "n",
		"status": "cog",
		"answer": "word",
		"correct": "S",
		"trial": "exp",
		"letters": "8",
		"trial_type": "html-keyboard-response",
		"trial_index": 171,
		"time_elapsed": 305485,
		"internal_node_id": "0.0-3.0-1.77"
	},
	{
		"rt": null,
		"stimulus": "+",
		"response": null,
		"trial_type": "html-keyboard-response",
		"trial_index": 172,
		"time_elapsed": 305987,
		"internal_node_id": "0.0-3.0-0.78"
	},
	{
		"rt": 545,
		"stimulus": "país",
		"response": "s",
		"class": "n",
		"status": "noncog",
		"answer": "word",
		"correct": "S",
		"trial": "exp",
		"letters": "4",
		"trial_type": "html-keyboard-response",
		"trial_index": 173,
		"time_elapsed": 306532,
		"internal_node_id": "0.0-3.0-1.78"
	},
	{
		"rt": null,
		"stimulus": "+",
		"response": null,
		"trial_type": "html-keyboard-response",
		"trial_index": 174,
		"time_elapsed": 307038,
		"internal_node_id": "0.0-3.0-0.79"
	},
	{
		"rt": 1723,
		"stimulus": "costra",
		"response": "s",
		"class": "null",
		"status": "noncog",
		"answer": "pseudo",
		"correct": "N",
		"trial": "exp",
		"letters": "null",
		"trial_type": "html-keyboard-response",
		"trial_index": 175,
		"time_elapsed": 308761,
		"internal_node_id": "0.0-3.0-1.79"
	},
	{
		"rt": null,
		"stimulus": "+",
		"response": null,
		"trial_type": "html-keyboard-response",
		"trial_index": 176,
		"time_elapsed": 309267,
		"internal_node_id": "0.0-3.0-0.80"
	},
	{
		"rt": 666,
		"stimulus": "carro",
		"response": "s",
		"class": "n",
		"status": "noncog",
		"answer": "word",
		"correct": "S",
		"trial": "exp",
		"letters": "5",
		"trial_type": "html-keyboard-response",
		"trial_index": 177,
		"time_elapsed": 309934,
		"internal_node_id": "0.0-3.0-1.80"
	},
	{
		"rt": null,
		"stimulus": "+",
		"response": null,
		"trial_type": "html-keyboard-response",
		"trial_index": 178,
		"time_elapsed": 310444,
		"internal_node_id": "0.0-3.0-0.81"
	},
	{
		"rt": 1935,
		"stimulus": "gertas",
		"response": "n",
		"class": "null",
		"status": "noncog",
		"answer": "pseudo",
		"correct": "N",
		"trial": "exp",
		"letters": "null",
		"trial_type": "html-keyboard-response",
		"trial_index": 179,
		"time_elapsed": 312382,
		"internal_node_id": "0.0-3.0-1.81"
	},
	{
		"rt": null,
		"stimulus": "+",
		"response": null,
		"trial_type": "html-keyboard-response",
		"trial_index": 180,
		"time_elapsed": 312887,
		"internal_node_id": "0.0-3.0-0.82"
	},
	{
		"rt": 1758,
		"stimulus": "delirar",
		"response": "s",
		"class": "v",
		"status": "noncog",
		"answer": "word",
		"correct": "S",
		"trial": "exp",
		"letters": "7",
		"trial_type": "html-keyboard-response",
		"trial_index": 181,
		"time_elapsed": 314646,
		"internal_node_id": "0.0-3.0-1.82"
	},
	{
		"rt": null,
		"stimulus": "+",
		"response": null,
		"trial_type": "html-keyboard-response",
		"trial_index": 182,
		"time_elapsed": 315148,
		"internal_node_id": "0.0-3.0-0.83"
	},
	{
		"rt": 659,
		"stimulus": "verdade",
		"response": "s",
		"class": "n",
		"status": "cog",
		"answer": "word",
		"correct": "S",
		"trial": "exp",
		"letters": "7",
		"trial_type": "html-keyboard-response",
		"trial_index": 183,
		"time_elapsed": 315809,
		"internal_node_id": "0.0-3.0-1.83"
	},
	{
		"rt": null,
		"stimulus": "+",
		"response": null,
		"trial_type": "html-keyboard-response",
		"trial_index": 184,
		"time_elapsed": 316326,
		"internal_node_id": "0.0-3.0-0.84"
	},
	{
		"rt": 1602,
		"stimulus": "pantufa",
		"response": "s",
		"class": "n",
		"status": "cog",
		"answer": "word",
		"correct": "S",
		"trial": "exp",
		"letters": "7",
		"trial_type": "html-keyboard-response",
		"trial_index": 185,
		"time_elapsed": 317929,
		"internal_node_id": "0.0-3.0-1.84"
	},
	{
		"rt": null,
		"stimulus": "+",
		"response": null,
		"trial_type": "html-keyboard-response",
		"trial_index": 186,
		"time_elapsed": 318437,
		"internal_node_id": "0.0-3.0-0.85"
	},
	{
		"rt": 1597,
		"stimulus": "grótis",
		"response": "n",
		"class": "null",
		"status": "noncog",
		"answer": "pseudo",
		"correct": "N",
		"trial": "exp",
		"letters": "null",
		"trial_type": "html-keyboard-response",
		"trial_index": 187,
		"time_elapsed": 320035,
		"internal_node_id": "0.0-3.0-1.85"
	},
	{
		"rt": null,
		"stimulus": "+",
		"response": null,
		"trial_type": "html-keyboard-response",
		"trial_index": 188,
		"time_elapsed": 320540,
		"internal_node_id": "0.0-3.0-0.86"
	},
	{
		"rt": 587,
		"stimulus": "cristal",
		"response": "s",
		"class": "n",
		"status": "cog",
		"answer": "word",
		"correct": "S",
		"trial": "exp",
		"letters": "7",
		"trial_type": "html-keyboard-response",
		"trial_index": 189,
		"time_elapsed": 321127,
		"internal_node_id": "0.0-3.0-1.86"
	},
	{
		"rt": null,
		"stimulus": "+",
		"response": null,
		"trial_type": "html-keyboard-response",
		"trial_index": 190,
		"time_elapsed": 321637,
		"internal_node_id": "0.0-3.0-0.87"
	},
	{
		"rt": 1913,
		"stimulus": "carona",
		"response": "s",
		"class": "n",
		"status": "noncog",
		"answer": "word",
		"correct": "S",
		"trial": "exp",
		"letters": "6",
		"trial_type": "html-keyboard-response",
		"trial_index": 191,
		"time_elapsed": 323551,
		"internal_node_id": "0.0-3.0-1.87"
	},
	{
		"rt": null,
		"stimulus": "+",
		"response": null,
		"trial_type": "html-keyboard-response",
		"trial_index": 192,
		"time_elapsed": 324060,
		"internal_node_id": "0.0-3.0-0.88"
	},
	{
		"rt": 1405,
		"stimulus": "detative",
		"response": "s",
		"class": "null",
		"status": "noncog",
		"answer": "pseudo",
		"correct": "N",
		"trial": "exp",
		"letters": "null",
		"trial_type": "html-keyboard-response",
		"trial_index": 193,
		"time_elapsed": 325466,
		"internal_node_id": "0.0-3.0-1.88"
	},
	{
		"rt": null,
		"stimulus": "+",
		"response": null,
		"trial_type": "html-keyboard-response",
		"trial_index": 194,
		"time_elapsed": 325975,
		"internal_node_id": "0.0-3.0-0.89"
	},
	{
		"rt": 892,
		"stimulus": "cápsula",
		"response": "s",
		"class": "n",
		"status": "noncog",
		"answer": "word",
		"correct": "S",
		"trial": "exp",
		"letters": "7",
		"trial_type": "html-keyboard-response",
		"trial_index": 195,
		"time_elapsed": 326869,
		"internal_node_id": "0.0-3.0-1.89"
	},
	{
		"rt": null,
		"stimulus": "+",
		"response": null,
		"trial_type": "html-keyboard-response",
		"trial_index": 196,
		"time_elapsed": 327384,
		"internal_node_id": "0.0-3.0-0.90"
	},
	{
		"rt": 689,
		"stimulus": "grave",
		"response": "s",
		"class": "a",
		"status": "cog",
		"answer": "word",
		"correct": "S",
		"trial": "exp",
		"letters": "5",
		"trial_type": "html-keyboard-response",
		"trial_index": 197,
		"time_elapsed": 328074,
		"internal_node_id": "0.0-3.0-1.90"
	},
	{
		"rt": null,
		"stimulus": "+",
		"response": null,
		"trial_type": "html-keyboard-response",
		"trial_index": 198,
		"time_elapsed": 328580,
		"internal_node_id": "0.0-3.0-0.91"
	},
	{
		"rt": 903,
		"stimulus": "aletiê",
		"response": "n",
		"class": "null",
		"status": "noncog",
		"answer": "pseudo",
		"correct": "N",
		"trial": "exp",
		"letters": "null",
		"trial_type": "html-keyboard-response",
		"trial_index": 199,
		"time_elapsed": 329484,
		"internal_node_id": "0.0-3.0-1.91"
	},
	{
		"rt": null,
		"stimulus": "+",
		"response": null,
		"trial_type": "html-keyboard-response",
		"trial_index": 200,
		"time_elapsed": 329990,
		"internal_node_id": "0.0-3.0-0.92"
	},
	{
		"rt": 1115,
		"stimulus": "vitrive",
		"response": "n",
		"class": "null",
		"status": "noncog",
		"answer": "pseudo",
		"correct": "N",
		"trial": "exp",
		"letters": "null",
		"trial_type": "html-keyboard-response",
		"trial_index": 201,
		"time_elapsed": 331106,
		"internal_node_id": "0.0-3.0-1.92"
	},
	{
		"rt": null,
		"stimulus": "+",
		"response": null,
		"trial_type": "html-keyboard-response",
		"trial_index": 202,
		"time_elapsed": 331617,
		"internal_node_id": "0.0-3.0-0.93"
	},
	{
		"rt": 645,
		"stimulus": "chato",
		"response": "s",
		"class": "n",
		"status": "noncog",
		"answer": "word",
		"correct": "S",
		"trial": "exp",
		"letters": "5",
		"trial_type": "html-keyboard-response",
		"trial_index": 203,
		"time_elapsed": 332263,
		"internal_node_id": "0.0-3.0-1.93"
	},
	{
		"rt": null,
		"stimulus": "+",
		"response": null,
		"trial_type": "html-keyboard-response",
		"trial_index": 204,
		"time_elapsed": 332773,
		"internal_node_id": "0.0-3.0-0.94"
	},
	{
		"rt": 1220,
		"stimulus": "dipata",
		"response": "s",
		"class": "null",
		"status": "noncog",
		"answer": "pseudo",
		"correct": "N",
		"trial": "exp",
		"letters": "null",
		"trial_type": "html-keyboard-response",
		"trial_index": 205,
		"time_elapsed": 333997,
		"internal_node_id": "0.0-3.0-1.94"
	},
	{
		"rt": null,
		"stimulus": "+",
		"response": null,
		"trial_type": "html-keyboard-response",
		"trial_index": 206,
		"time_elapsed": 334499,
		"internal_node_id": "0.0-3.0-0.95"
	},
	{
		"rt": 920,
		"stimulus": "esfoce",
		"response": "s",
		"class": "null",
		"status": "noncog",
		"answer": "pseudo",
		"correct": "N",
		"trial": "exp",
		"letters": "null",
		"trial_type": "html-keyboard-response",
		"trial_index": 207,
		"time_elapsed": 335419,
		"internal_node_id": "0.0-3.0-1.95"
	},
	{
		"rt": null,
		"stimulus": "+",
		"response": null,
		"trial_type": "html-keyboard-response",
		"trial_index": 208,
		"time_elapsed": 335921,
		"internal_node_id": "0.0-3.0-0.96"
	},
	{
		"rt": 693,
		"stimulus": "brincar",
		"response": "s",
		"class": "v",
		"status": "noncog",
		"answer": "word",
		"correct": "S",
		"trial": "exp",
		"letters": "7",
		"trial_type": "html-keyboard-response",
		"trial_index": 209,
		"time_elapsed": 336615,
		"internal_node_id": "0.0-3.0-1.96"
	},
	{
		"rt": null,
		"stimulus": "+",
		"response": null,
		"trial_type": "html-keyboard-response",
		"trial_index": 210,
		"time_elapsed": 337130,
		"internal_node_id": "0.0-3.0-0.97"
	},
	{
		"rt": 1372,
		"stimulus": "ocinto",
		"response": "n",
		"class": "null",
		"status": "noncog",
		"answer": "pseudo",
		"correct": "N",
		"trial": "exp",
		"letters": "null",
		"trial_type": "html-keyboard-response",
		"trial_index": 211,
		"time_elapsed": 338502,
		"internal_node_id": "0.0-3.0-1.97"
	},
	{
		"rt": null,
		"stimulus": "+",
		"response": null,
		"trial_type": "html-keyboard-response",
		"trial_index": 212,
		"time_elapsed": 339013,
		"internal_node_id": "0.0-3.0-0.98"
	},
	{
		"rt": 750,
		"stimulus": "ilhure",
		"response": "n",
		"class": "null",
		"status": "noncog",
		"answer": "pseudo",
		"correct": "N",
		"trial": "exp",
		"letters": "null",
		"trial_type": "html-keyboard-response",
		"trial_index": 213,
		"time_elapsed": 339765,
		"internal_node_id": "0.0-3.0-1.98"
	},
	{
		"rt": null,
		"stimulus": "+",
		"response": null,
		"trial_type": "html-keyboard-response",
		"trial_index": 214,
		"time_elapsed": 340269,
		"internal_node_id": "0.0-3.0-0.99"
	},
	{
		"rt": 1828,
		"stimulus": "deselegante",
		"response": "s",
		"class": "a",
		"status": "noncog",
		"answer": "word",
		"correct": "S",
		"trial": "exp",
		"letters": "11",
		"trial_type": "html-keyboard-response",
		"trial_index": 215,
		"time_elapsed": 342098,
		"internal_node_id": "0.0-3.0-1.99"
	},
	{
		"rt": null,
		"stimulus": "+",
		"response": null,
		"trial_type": "html-keyboard-response",
		"trial_index": 216,
		"time_elapsed": 342628,
		"internal_node_id": "0.0-3.0-0.100"
	},
	{
		"rt": 963,
		"stimulus": "tatear",
		"response": "n",
		"class": "v",
		"status": "cog",
		"answer": "word",
		"correct": "S",
		"trial": "exp",
		"letters": "6",
		"trial_type": "html-keyboard-response",
		"trial_index": 217,
		"time_elapsed": 343592,
		"internal_node_id": "0.0-3.0-1.100"
	},
	{
		"rt": null,
		"stimulus": "+",
		"response": null,
		"trial_type": "html-keyboard-response",
		"trial_index": 218,
		"time_elapsed": 344098,
		"internal_node_id": "0.0-3.0-0.101"
	},
	{
		"rt": 741,
		"stimulus": "oecano",
		"response": "n",
		"class": "null",
		"status": "noncog",
		"answer": "pseudo",
		"correct": "N",
		"trial": "exp",
		"letters": "null",
		"trial_type": "html-keyboard-response",
		"trial_index": 219,
		"time_elapsed": 344840,
		"internal_node_id": "0.0-3.0-1.101"
	},
	{
		"rt": null,
		"stimulus": "+",
		"response": null,
		"trial_type": "html-keyboard-response",
		"trial_index": 220,
		"time_elapsed": 345351,
		"internal_node_id": "0.0-3.0-0.102"
	},
	{
		"rt": 1328,
		"stimulus": "papai",
		"response": "s",
		"class": "n",
		"status": "cog",
		"answer": "word",
		"correct": "S",
		"trial": "exp",
		"letters": "5",
		"trial_type": "html-keyboard-response",
		"trial_index": 221,
		"time_elapsed": 346682,
		"internal_node_id": "0.0-3.0-1.102"
	},
	{
		"rt": null,
		"stimulus": "+",
		"response": null,
		"trial_type": "html-keyboard-response",
		"trial_index": 222,
		"time_elapsed": 347183,
		"internal_node_id": "0.0-3.0-0.103"
	},
	{
		"rt": 1484,
		"stimulus": "morno",
		"response": "s",
		"class": "a",
		"status": "noncog",
		"answer": "word",
		"correct": "S",
		"trial": "exp",
		"letters": "5",
		"trial_type": "html-keyboard-response",
		"trial_index": 223,
		"time_elapsed": 348669,
		"internal_node_id": "0.0-3.0-1.103"
	},
	{
		"rt": null,
		"stimulus": "+",
		"response": null,
		"trial_type": "html-keyboard-response",
		"trial_index": 224,
		"time_elapsed": 349183,
		"internal_node_id": "0.0-3.0-0.104"
	},
	{
		"rt": 582,
		"stimulus": "dia",
		"response": "s",
		"class": "n",
		"status": "noncog",
		"answer": "word",
		"correct": "S",
		"trial": "exp",
		"letters": "3",
		"trial_type": "html-keyboard-response",
		"trial_index": 225,
		"time_elapsed": 349767,
		"internal_node_id": "0.0-3.0-1.104"
	},
	{
		"rt": null,
		"stimulus": "+",
		"response": null,
		"trial_type": "html-keyboard-response",
		"trial_index": 226,
		"time_elapsed": 350274,
		"internal_node_id": "0.0-3.0-0.105"
	},
	{
		"rt": 1294,
		"stimulus": "boreta",
		"response": "s",
		"class": "null",
		"status": "noncog",
		"answer": "pseudo",
		"correct": "N",
		"trial": "exp",
		"letters": "null",
		"trial_type": "html-keyboard-response",
		"trial_index": 227,
		"time_elapsed": 351570,
		"internal_node_id": "0.0-3.0-1.105"
	},
	{
		"rt": null,
		"stimulus": "+",
		"response": null,
		"trial_type": "html-keyboard-response",
		"trial_index": 228,
		"time_elapsed": 352074,
		"internal_node_id": "0.0-3.0-0.106"
	},
	{
		"rt": 1947,
		"stimulus": "undivídio",
		"response": "s",
		"class": "null",
		"status": "noncog",
		"answer": "pseudo",
		"correct": "N",
		"trial": "exp",
		"letters": "null",
		"trial_type": "html-keyboard-response",
		"trial_index": 229,
		"time_elapsed": 354022,
		"internal_node_id": "0.0-3.0-1.106"
	},
	{
		"rt": null,
		"stimulus": "+",
		"response": null,
		"trial_type": "html-keyboard-response",
		"trial_index": 230,
		"time_elapsed": 354528,
		"internal_node_id": "0.0-3.0-0.107"
	},
	{
		"rt": 1038,
		"stimulus": "instruído",
		"response": "s",
		"class": "a",
		"status": "noncog",
		"answer": "word",
		"correct": "S",
		"trial": "exp",
		"letters": "9",
		"trial_type": "html-keyboard-response",
		"trial_index": 231,
		"time_elapsed": 355567,
		"internal_node_id": "0.0-3.0-1.107"
	},
	{
		"rt": null,
		"stimulus": "+",
		"response": null,
		"trial_type": "html-keyboard-response",
		"trial_index": 232,
		"time_elapsed": 356069,
		"internal_node_id": "0.0-3.0-0.108"
	},
	{
		"rt": 1057,
		"stimulus": "gruja",
		"response": "s",
		"class": "null",
		"status": "noncog",
		"answer": "pseudo",
		"correct": "N",
		"trial": "exp",
		"letters": "null",
		"trial_type": "html-keyboard-response",
		"trial_index": 233,
		"time_elapsed": 357127,
		"internal_node_id": "0.0-3.0-1.108"
	},
	{
		"rt": null,
		"stimulus": "+",
		"response": null,
		"trial_type": "html-keyboard-response",
		"trial_index": 234,
		"time_elapsed": 357643,
		"internal_node_id": "0.0-3.0-0.109"
	},
	{
		"rt": 1683,
		"stimulus": "farcas",
		"response": "s",
		"class": "null",
		"status": "noncog",
		"answer": "pseudo",
		"correct": "N",
		"trial": "exp",
		"letters": "null",
		"trial_type": "html-keyboard-response",
		"trial_index": 235,
		"time_elapsed": 359326,
		"internal_node_id": "0.0-3.0-1.109"
	},
	{
		"rt": null,
		"stimulus": "+",
		"response": null,
		"trial_type": "html-keyboard-response",
		"trial_index": 236,
		"time_elapsed": 359840,
		"internal_node_id": "0.0-3.0-0.110"
	},
	{
		"rt": 1264,
		"stimulus": "cenada",
		"response": "s",
		"class": "null",
		"status": "noncog",
		"answer": "pseudo",
		"correct": "N",
		"trial": "exp",
		"letters": "null",
		"trial_type": "html-keyboard-response",
		"trial_index": 237,
		"time_elapsed": 361104,
		"internal_node_id": "0.0-3.0-1.110"
	},
	{
		"rt": null,
		"stimulus": "+",
		"response": null,
		"trial_type": "html-keyboard-response",
		"trial_index": 238,
		"time_elapsed": 361616,
		"internal_node_id": "0.0-3.0-0.111"
	},
	{
		"rt": 1003,
		"stimulus": "preferir",
		"response": "s",
		"class": "v",
		"status": "cog",
		"answer": "word",
		"correct": "S",
		"trial": "exp",
		"letters": "8",
		"trial_type": "html-keyboard-response",
		"trial_index": 239,
		"time_elapsed": 362619,
		"internal_node_id": "0.0-3.0-1.111"
	},
	{
		"rt": null,
		"stimulus": "+",
		"response": null,
		"trial_type": "html-keyboard-response",
		"trial_index": 240,
		"time_elapsed": 363125,
		"internal_node_id": "0.0-3.0-0.112"
	},
	{
		"rt": 2190,
		"stimulus": "enxerido",
		"response": "s",
		"class": "a",
		"status": "noncog",
		"answer": "word",
		"correct": "S",
		"trial": "exp",
		"letters": "8",
		"trial_type": "html-keyboard-response",
		"trial_index": 241,
		"time_elapsed": 365317,
		"internal_node_id": "0.0-3.0-1.112"
	},
	{
		"rt": null,
		"stimulus": "+",
		"response": null,
		"trial_type": "html-keyboard-response",
		"trial_index": 242,
		"time_elapsed": 365819,
		"internal_node_id": "0.0-3.0-0.113"
	},
	{
		"rt": 770,
		"stimulus": "anjo",
		"response": "s",
		"class": "n",
		"status": "cog",
		"answer": "word",
		"correct": "S",
		"trial": "exp",
		"letters": "4",
		"trial_type": "html-keyboard-response",
		"trial_index": 243,
		"time_elapsed": 366591,
		"internal_node_id": "0.0-3.0-1.113"
	},
	{
		"rt": null,
		"stimulus": "+",
		"response": null,
		"trial_type": "html-keyboard-response",
		"trial_index": 244,
		"time_elapsed": 367098,
		"internal_node_id": "0.0-3.0-0.114"
	},
	{
		"rt": 757,
		"stimulus": "cinema",
		"response": "s",
		"class": "n",
		"status": "cog",
		"answer": "word",
		"correct": "S",
		"trial": "exp",
		"letters": "6",
		"trial_type": "html-keyboard-response",
		"trial_index": 245,
		"time_elapsed": 367855,
		"internal_node_id": "0.0-3.0-1.114"
	},
	{
		"rt": null,
		"stimulus": "+",
		"response": null,
		"trial_type": "html-keyboard-response",
		"trial_index": 246,
		"time_elapsed": 368357,
		"internal_node_id": "0.0-3.0-0.115"
	},
	{
		"rt": 1325,
		"stimulus": "sintonizar",
		"response": "s",
		"class": "v",
		"status": "noncog",
		"answer": "word",
		"correct": "S",
		"trial": "exp",
		"letters": "10",
		"trial_type": "html-keyboard-response",
		"trial_index": 247,
		"time_elapsed": 369683,
		"internal_node_id": "0.0-3.0-1.115"
	},
	{
		"rt": null,
		"stimulus": "+",
		"response": null,
		"trial_type": "html-keyboard-response",
		"trial_index": 248,
		"time_elapsed": 370187,
		"internal_node_id": "0.0-3.0-0.116"
	},
	{
		"rt": 870,
		"stimulus": "burtos",
		"response": "s",
		"class": "null",
		"status": "noncog",
		"answer": "pseudo",
		"correct": "N",
		"trial": "exp",
		"letters": "null",
		"trial_type": "html-keyboard-response",
		"trial_index": 249,
		"time_elapsed": 371059,
		"internal_node_id": "0.0-3.0-1.116"
	},
	{
		"rt": null,
		"stimulus": "+",
		"response": null,
		"trial_type": "html-keyboard-response",
		"trial_index": 250,
		"time_elapsed": 371565,
		"internal_node_id": "0.0-3.0-0.117"
	},
	{
		"rt": 865,
		"stimulus": "carregar",
		"response": "s",
		"class": "v",
		"status": "noncog",
		"answer": "word",
		"correct": "S",
		"trial": "exp",
		"letters": "8",
		"trial_type": "html-keyboard-response",
		"trial_index": 251,
		"time_elapsed": 372431,
		"internal_node_id": "0.0-3.0-1.117"
	},
	{
		"rt": null,
		"stimulus": "+",
		"response": null,
		"trial_type": "html-keyboard-response",
		"trial_index": 252,
		"time_elapsed": 372943,
		"internal_node_id": "0.0-3.0-0.118"
	},
	{
		"rt": 1189,
		"stimulus": "cirado",
		"response": "s",
		"class": "null",
		"status": "noncog",
		"answer": "pseudo",
		"correct": "N",
		"trial": "exp",
		"letters": "null",
		"trial_type": "html-keyboard-response",
		"trial_index": 253,
		"time_elapsed": 374133,
		"internal_node_id": "0.0-3.0-1.118"
	},
	{
		"rt": null,
		"stimulus": "+",
		"response": null,
		"trial_type": "html-keyboard-response",
		"trial_index": 254,
		"time_elapsed": 374646,
		"internal_node_id": "0.0-3.0-0.119"
	},
	{
		"rt": 680,
		"stimulus": "jantar",
		"response": "s",
		"class": "v",
		"status": "noncog",
		"answer": "word",
		"correct": "S",
		"trial": "exp",
		"letters": "6",
		"trial_type": "html-keyboard-response",
		"trial_index": 255,
		"time_elapsed": 375327,
		"internal_node_id": "0.0-3.0-1.119"
	},
	{
		"rt": null,
		"stimulus": "+",
		"response": null,
		"trial_type": "html-keyboard-response",
		"trial_index": 256,
		"time_elapsed": 375832,
		"internal_node_id": "0.0-3.0-0.120"
	},
	{
		"rt": 745,
		"stimulus": "traduzir",
		"response": "s",
		"class": "v",
		"status": "cog",
		"answer": "word",
		"correct": "S",
		"trial": "exp",
		"letters": "8",
		"trial_type": "html-keyboard-response",
		"trial_index": 257,
		"time_elapsed": 376577,
		"internal_node_id": "0.0-3.0-1.120"
	},
	{
		"rt": null,
		"stimulus": "+",
		"response": null,
		"trial_type": "html-keyboard-response",
		"trial_index": 258,
		"time_elapsed": 377094,
		"internal_node_id": "0.0-3.0-0.121"
	},
	{
		"rt": 1932,
		"stimulus": "garastia",
		"response": "s",
		"class": "null",
		"status": "noncog",
		"answer": "pseudo",
		"correct": "N",
		"trial": "exp",
		"letters": "null",
		"trial_type": "html-keyboard-response",
		"trial_index": 259,
		"time_elapsed": 379027,
		"internal_node_id": "0.0-3.0-1.121"
	},
	{
		"rt": null,
		"stimulus": "+",
		"response": null,
		"trial_type": "html-keyboard-response",
		"trial_index": 260,
		"time_elapsed": 379533,
		"internal_node_id": "0.0-3.0-0.122"
	},
	{
		"rt": 847,
		"stimulus": "alfabeto",
		"response": "s",
		"class": "n",
		"status": "cog",
		"answer": "word",
		"correct": "S",
		"trial": "exp",
		"letters": "8",
		"trial_type": "html-keyboard-response",
		"trial_index": 261,
		"time_elapsed": 380381,
		"internal_node_id": "0.0-3.0-1.122"
	},
	{
		"rt": null,
		"stimulus": "+",
		"response": null,
		"trial_type": "html-keyboard-response",
		"trial_index": 262,
		"time_elapsed": 380884,
		"internal_node_id": "0.0-3.0-0.123"
	},
	{
		"rt": 678,
		"stimulus": "raspar",
		"response": "s",
		"class": "v",
		"status": "noncog",
		"answer": "word",
		"correct": "S",
		"trial": "exp",
		"letters": "6",
		"trial_type": "html-keyboard-response",
		"trial_index": 263,
		"time_elapsed": 381563,
		"internal_node_id": "0.0-3.0-1.123"
	},
	{
		"rt": null,
		"stimulus": "+",
		"response": null,
		"trial_type": "html-keyboard-response",
		"trial_index": 264,
		"time_elapsed": 382067,
		"internal_node_id": "0.0-3.0-0.124"
	},
	{
		"rt": 2004,
		"stimulus": "dencosto",
		"response": "n",
		"class": "null",
		"status": "noncog",
		"answer": "pseudo",
		"correct": "N",
		"trial": "exp",
		"letters": "null",
		"trial_type": "html-keyboard-response",
		"trial_index": 265,
		"time_elapsed": 384071,
		"internal_node_id": "0.0-3.0-1.124"
	},
	{
		"rt": null,
		"stimulus": "+",
		"response": null,
		"trial_type": "html-keyboard-response",
		"trial_index": 266,
		"time_elapsed": 384582,
		"internal_node_id": "0.0-3.0-0.125"
	},
	{
		"rt": 557,
		"stimulus": "nacional",
		"response": "s",
		"class": "a",
		"status": "cog",
		"answer": "word",
		"correct": "S",
		"trial": "exp",
		"letters": "8",
		"trial_type": "html-keyboard-response",
		"trial_index": 267,
		"time_elapsed": 385141,
		"internal_node_id": "0.0-3.0-1.125"
	},
	{
		"rt": null,
		"stimulus": "+",
		"response": null,
		"trial_type": "html-keyboard-response",
		"trial_index": 268,
		"time_elapsed": 385643,
		"internal_node_id": "0.0-3.0-0.126"
	},
	{
		"rt": 2105,
		"stimulus": "pneucania",
		"response": "s",
		"class": "null",
		"status": "noncog",
		"answer": "pseudo",
		"correct": "N",
		"trial": "exp",
		"letters": "null",
		"trial_type": "html-keyboard-response",
		"trial_index": 269,
		"time_elapsed": 387749,
		"internal_node_id": "0.0-3.0-1.126"
	},
	{
		"rt": null,
		"stimulus": "+",
		"response": null,
		"trial_type": "html-keyboard-response",
		"trial_index": 270,
		"time_elapsed": 388260,
		"internal_node_id": "0.0-3.0-0.127"
	},
	{
		"rt": 596,
		"stimulus": "tênis",
		"response": "s",
		"class": "n",
		"status": "cog",
		"answer": "word",
		"correct": "S",
		"trial": "exp",
		"letters": "5",
		"trial_type": "html-keyboard-response",
		"trial_index": 271,
		"time_elapsed": 388857,
		"internal_node_id": "0.0-3.0-1.127"
	},
	{
		"rt": null,
		"stimulus": "+",
		"response": null,
		"trial_type": "html-keyboard-response",
		"trial_index": 272,
		"time_elapsed": 389364,
		"internal_node_id": "0.0-3.0-0.128"
	},
	{
		"rt": 618,
		"stimulus": "fratos",
		"response": "s",
		"class": "null",
		"status": "noncog",
		"answer": "pseudo",
		"correct": "N",
		"trial": "exp",
		"letters": "null",
		"trial_type": "html-keyboard-response",
		"trial_index": 273,
		"time_elapsed": 389984,
		"internal_node_id": "0.0-3.0-1.128"
	},
	{
		"rt": null,
		"stimulus": "+",
		"response": null,
		"trial_type": "html-keyboard-response",
		"trial_index": 274,
		"time_elapsed": 390492,
		"internal_node_id": "0.0-3.0-0.129"
	},
	{
		"rt": 1287,
		"stimulus": "lorfaz",
		"response": "n",
		"class": "null",
		"status": "noncog",
		"answer": "pseudo",
		"correct": "N",
		"trial": "exp",
		"letters": "null",
		"trial_type": "html-keyboard-response",
		"trial_index": 275,
		"time_elapsed": 391780,
		"internal_node_id": "0.0-3.0-1.129"
	},
	{
		"rt": null,
		"stimulus": "+",
		"response": null,
		"trial_type": "html-keyboard-response",
		"trial_index": 276,
		"time_elapsed": 392287,
		"internal_node_id": "0.0-3.0-0.130"
	},
	{
		"rt": 945,
		"stimulus": "trair",
		"response": "s",
		"class": "v",
		"status": "cog",
		"answer": "word",
		"correct": "S",
		"trial": "exp",
		"letters": "5",
		"trial_type": "html-keyboard-response",
		"trial_index": 277,
		"time_elapsed": 393232,
		"internal_node_id": "0.0-3.0-1.130"
	},
	{
		"rt": null,
		"stimulus": "+",
		"response": null,
		"trial_type": "html-keyboard-response",
		"trial_index": 278,
		"time_elapsed": 393739,
		"internal_node_id": "0.0-3.0-0.131"
	},
	{
		"rt": 930,
		"stimulus": "convidado",
		"response": "s",
		"class": "n",
		"status": "noncog",
		"answer": "word",
		"correct": "S",
		"trial": "exp",
		"letters": "9",
		"trial_type": "html-keyboard-response",
		"trial_index": 279,
		"time_elapsed": 394669,
		"internal_node_id": "0.0-3.0-1.131"
	},
	{
		"rt": null,
		"stimulus": "+",
		"response": null,
		"trial_type": "html-keyboard-response",
		"trial_index": 280,
		"time_elapsed": 395172,
		"internal_node_id": "0.0-3.0-0.132"
	},
	{
		"rt": 2206,
		"stimulus": "franda",
		"response": "n",
		"class": "null",
		"status": "noncog",
		"answer": "pseudo",
		"correct": "N",
		"trial": "exp",
		"letters": "null",
		"trial_type": "html-keyboard-response",
		"trial_index": 281,
		"time_elapsed": 397379,
		"internal_node_id": "0.0-3.0-1.132"
	},
	{
		"rt": null,
		"stimulus": "+",
		"response": null,
		"trial_type": "html-keyboard-response",
		"trial_index": 282,
		"time_elapsed": 397887,
		"internal_node_id": "0.0-3.0-0.133"
	},
	{
		"rt": 905,
		"stimulus": "espionar",
		"response": "s",
		"class": "v",
		"status": "cog",
		"answer": "word",
		"correct": "S",
		"trial": "exp",
		"letters": "8",
		"trial_type": "html-keyboard-response",
		"trial_index": 283,
		"time_elapsed": 398793,
		"internal_node_id": "0.0-3.0-1.133"
	},
	{
		"rt": null,
		"stimulus": "+",
		"response": null,
		"trial_type": "html-keyboard-response",
		"trial_index": 284,
		"time_elapsed": 399306,
		"internal_node_id": "0.0-3.0-0.134"
	},
	{
		"rt": 1970,
		"stimulus": "plinta",
		"response": "n",
		"class": "null",
		"status": "noncog",
		"answer": "pseudo",
		"correct": "N",
		"trial": "exp",
		"letters": "null",
		"trial_type": "html-keyboard-response",
		"trial_index": 285,
		"time_elapsed": 401277,
		"internal_node_id": "0.0-3.0-1.134"
	},
	{
		"rt": null,
		"stimulus": "+",
		"response": null,
		"trial_type": "html-keyboard-response",
		"trial_index": 286,
		"time_elapsed": 401786,
		"internal_node_id": "0.0-3.0-0.135"
	},
	{
		"rt": 660,
		"stimulus": "nevela",
		"response": "s",
		"class": "null",
		"status": "noncog",
		"answer": "pseudo",
		"correct": "N",
		"trial": "exp",
		"letters": "null",
		"trial_type": "html-keyboard-response",
		"trial_index": 287,
		"time_elapsed": 402447,
		"internal_node_id": "0.0-3.0-1.135"
	},
	{
		"rt": null,
		"stimulus": "+",
		"response": null,
		"trial_type": "html-keyboard-response",
		"trial_index": 288,
		"time_elapsed": 402956,
		"internal_node_id": "0.0-3.0-0.136"
	},
	{
		"rt": 1739,
		"stimulus": "motros",
		"response": "n",
		"class": "null",
		"status": "noncog",
		"answer": "pseudo",
		"correct": "N",
		"trial": "exp",
		"letters": "null",
		"trial_type": "html-keyboard-response",
		"trial_index": 289,
		"time_elapsed": 404697,
		"internal_node_id": "0.0-3.0-1.136"
	},
	{
		"rt": null,
		"stimulus": "+",
		"response": null,
		"trial_type": "html-keyboard-response",
		"trial_index": 290,
		"time_elapsed": 405213,
		"internal_node_id": "0.0-3.0-0.137"
	},
	{
		"rt": 1221,
		"stimulus": "adoçar",
		"response": "s",
		"class": "v",
		"status": "noncog",
		"answer": "word",
		"correct": "S",
		"trial": "exp",
		"letters": "6",
		"trial_type": "html-keyboard-response",
		"trial_index": 291,
		"time_elapsed": 406435,
		"internal_node_id": "0.0-3.0-1.137"
	},
	{
		"rt": null,
		"stimulus": "+",
		"response": null,
		"trial_type": "html-keyboard-response",
		"trial_index": 292,
		"time_elapsed": 406945,
		"internal_node_id": "0.0-3.0-0.138"
	},
	{
		"rt": 1034,
		"stimulus": "fogão",
		"response": "s",
		"class": "n",
		"status": "noncog",
		"answer": "word",
		"correct": "S",
		"trial": "exp",
		"letters": "5",
		"trial_type": "html-keyboard-response",
		"trial_index": 293,
		"time_elapsed": 407978,
		"internal_node_id": "0.0-3.0-1.138"
	},
	{
		"rt": null,
		"stimulus": "+",
		"response": null,
		"trial_type": "html-keyboard-response",
		"trial_index": 294,
		"time_elapsed": 408491,
		"internal_node_id": "0.0-3.0-0.139"
	},
	{
		"rt": 2321,
		"stimulus": "berquesa",
		"response": "s",
		"class": "null",
		"status": "noncog",
		"answer": "pseudo",
		"correct": "N",
		"trial": "exp",
		"letters": "null",
		"trial_type": "html-keyboard-response",
		"trial_index": 295,
		"time_elapsed": 410813,
		"internal_node_id": "0.0-3.0-1.139"
	},
	{
		"rt": null,
		"stimulus": "+",
		"response": null,
		"trial_type": "html-keyboard-response",
		"trial_index": 296,
		"time_elapsed": 411321,
		"internal_node_id": "0.0-3.0-0.140"
	},
	{
		"rt": 714,
		"stimulus": "ótimo",
		"response": "s",
		"class": "a",
		"status": "noncog",
		"answer": "word",
		"correct": "S",
		"trial": "exp",
		"letters": "5",
		"trial_type": "html-keyboard-response",
		"trial_index": 297,
		"time_elapsed": 412036,
		"internal_node_id": "0.0-3.0-1.140"
	},
	{
		"rt": null,
		"stimulus": "+",
		"response": null,
		"trial_type": "html-keyboard-response",
		"trial_index": 298,
		"time_elapsed": 412537,
		"internal_node_id": "0.0-3.0-0.141"
	},
	{
		"rt": 936,
		"stimulus": "pulmão",
		"response": "s",
		"class": "n",
		"status": "noncog",
		"answer": "word",
		"correct": "S",
		"trial": "exp",
		"letters": "6",
		"trial_type": "html-keyboard-response",
		"trial_index": 299,
		"time_elapsed": 413475,
		"internal_node_id": "0.0-3.0-1.141"
	},
	{
		"rt": null,
		"stimulus": "+",
		"response": null,
		"trial_type": "html-keyboard-response",
		"trial_index": 300,
		"time_elapsed": 413988,
		"internal_node_id": "0.0-3.0-0.142"
	},
	{
		"rt": 2194,
		"stimulus": "ensuas",
		"response": "n",
		"class": "null",
		"status": "noncog",
		"answer": "pseudo",
		"correct": "N",
		"trial": "exp",
		"letters": "null",
		"trial_type": "html-keyboard-response",
		"trial_index": 301,
		"time_elapsed": 416182,
		"internal_node_id": "0.0-3.0-1.142"
	},
	{
		"rt": null,
		"stimulus": "+",
		"response": null,
		"trial_type": "html-keyboard-response",
		"trial_index": 302,
		"time_elapsed": 416694,
		"internal_node_id": "0.0-3.0-0.143"
	},
	{
		"rt": 880,
		"stimulus": "melão",
		"response": "s",
		"class": "n",
		"status": "cog",
		"answer": "word",
		"correct": "S",
		"trial": "exp",
		"letters": "5",
		"trial_type": "html-keyboard-response",
		"trial_index": 303,
		"time_elapsed": 417576,
		"internal_node_id": "0.0-3.0-1.143"
	},
	{
		"rt": null,
		"stimulus": "+",
		"response": null,
		"trial_type": "html-keyboard-response",
		"trial_index": 304,
		"time_elapsed": 418085,
		"internal_node_id": "0.0-3.0-0.144"
	},
	{
		"rt": 690,
		"stimulus": "liso",
		"response": "s",
		"class": "n",
		"status": "noncog",
		"answer": "word",
		"correct": "S",
		"trial": "exp",
		"letters": "4",
		"trial_type": "html-keyboard-response",
		"trial_index": 305,
		"time_elapsed": 418775,
		"internal_node_id": "0.0-3.0-1.144"
	},
	{
		"rt": null,
		"stimulus": "+",
		"response": null,
		"trial_type": "html-keyboard-response",
		"trial_index": 306,
		"time_elapsed": 419291,
		"internal_node_id": "0.0-3.0-0.145"
	},
	{
		"rt": 710,
		"stimulus": "drama",
		"response": "s",
		"class": "n",
		"status": "cog",
		"answer": "word",
		"correct": "S",
		"trial": "exp",
		"letters": "5",
		"trial_type": "html-keyboard-response",
		"trial_index": 307,
		"time_elapsed": 420002,
		"internal_node_id": "0.0-3.0-1.145"
	},
	{
		"rt": null,
		"stimulus": "+",
		"response": null,
		"trial_type": "html-keyboard-response",
		"trial_index": 308,
		"time_elapsed": 420505,
		"internal_node_id": "0.0-3.0-0.146"
	},
	{
		"rt": 1540,
		"stimulus": "rovaz",
		"response": "n",
		"class": "null",
		"status": "noncog",
		"answer": "pseudo",
		"correct": "N",
		"trial": "exp",
		"letters": "null",
		"trial_type": "html-keyboard-response",
		"trial_index": 309,
		"time_elapsed": 422047,
		"internal_node_id": "0.0-3.0-1.146"
	},
	{
		"rt": null,
		"stimulus": "+",
		"response": null,
		"trial_type": "html-keyboard-response",
		"trial_index": 310,
		"time_elapsed": 422554,
		"internal_node_id": "0.0-3.0-0.147"
	},
	{
		"rt": 538,
		"stimulus": "mal",
		"response": "s",
		"class": "a",
		"status": "cog",
		"answer": "word",
		"correct": "S",
		"trial": "exp",
		"letters": "3",
		"trial_type": "html-keyboard-response",
		"trial_index": 311,
		"time_elapsed": 423093,
		"internal_node_id": "0.0-3.0-1.147"
	},
	{
		"rt": null,
		"stimulus": "+",
		"response": null,
		"trial_type": "html-keyboard-response",
		"trial_index": 312,
		"time_elapsed": 423594,
		"internal_node_id": "0.0-3.0-0.148"
	},
	{
		"rt": 809,
		"stimulus": "gordo",
		"response": "s",
		"class": "a",
		"status": "noncog",
		"answer": "word",
		"correct": "S",
		"trial": "exp",
		"letters": "5",
		"trial_type": "html-keyboard-response",
		"trial_index": 313,
		"time_elapsed": 424403,
		"internal_node_id": "0.0-3.0-1.148"
	},
	{
		"rt": null,
		"stimulus": "+",
		"response": null,
		"trial_type": "html-keyboard-response",
		"trial_index": 314,
		"time_elapsed": 424915,
		"internal_node_id": "0.0-3.0-0.149"
	},
	{
		"rt": 684,
		"stimulus": "tinta",
		"response": "s",
		"class": "n",
		"status": "cog",
		"answer": "word",
		"correct": "S",
		"trial": "exp",
		"letters": "5",
		"trial_type": "html-keyboard-response",
		"trial_index": 315,
		"time_elapsed": 425601,
		"internal_node_id": "0.0-3.0-1.149"
	},
	{
		"rt": null,
		"stimulus": "+",
		"response": null,
		"trial_type": "html-keyboard-response",
		"trial_index": 316,
		"time_elapsed": 426104,
		"internal_node_id": "0.0-3.0-0.150"
	},
	{
		"rt": 1360,
		"stimulus": "jastor",
		"response": "n",
		"class": "null",
		"status": "noncog",
		"answer": "pseudo",
		"correct": "N",
		"trial": "exp",
		"letters": "null",
		"trial_type": "html-keyboard-response",
		"trial_index": 317,
		"time_elapsed": 427464,
		"internal_node_id": "0.0-3.0-1.150"
	},
	{
		"rt": null,
		"stimulus": "+",
		"response": null,
		"trial_type": "html-keyboard-response",
		"trial_index": 318,
		"time_elapsed": 427968,
		"internal_node_id": "0.0-3.0-0.151"
	},
	{
		"rt": 3729,
		"stimulus": "suipestar",
		"response": "n",
		"class": "null",
		"status": "noncog",
		"answer": "pseudo",
		"correct": "N",
		"trial": "exp",
		"letters": "null",
		"trial_type": "html-keyboard-response",
		"trial_index": 319,
		"time_elapsed": 431699,
		"internal_node_id": "0.0-3.0-1.151"
	},
	{
		"rt": null,
		"stimulus": "+",
		"response": null,
		"trial_type": "html-keyboard-response",
		"trial_index": 320,
		"time_elapsed": 432213,
		"internal_node_id": "0.0-3.0-0.152"
	},
	{
		"rt": 1001,
		"stimulus": "disbrituir",
		"response": "s",
		"class": "null",
		"status": "noncog",
		"answer": "pseudo",
		"correct": "N",
		"trial": "exp",
		"letters": "null",
		"trial_type": "html-keyboard-response",
		"trial_index": 321,
		"time_elapsed": 433214,
		"internal_node_id": "0.0-3.0-1.152"
	},
	{
		"rt": null,
		"stimulus": "+",
		"response": null,
		"trial_type": "html-keyboard-response",
		"trial_index": 322,
		"time_elapsed": 433723,
		"internal_node_id": "0.0-3.0-0.153"
	},
	{
		"rt": 1267,
		"stimulus": "pangos",
		"response": "n",
		"class": "null",
		"status": "noncog",
		"answer": "pseudo",
		"correct": "N",
		"trial": "exp",
		"letters": "null",
		"trial_type": "html-keyboard-response",
		"trial_index": 323,
		"time_elapsed": 434991,
		"internal_node_id": "0.0-3.0-1.153"
	},
	{
		"rt": null,
		"stimulus": "+",
		"response": null,
		"trial_type": "html-keyboard-response",
		"trial_index": 324,
		"time_elapsed": 435498,
		"internal_node_id": "0.0-3.0-0.154"
	},
	{
		"rt": 1485,
		"stimulus": "irratinte",
		"response": "s",
		"class": "null",
		"status": "noncog",
		"answer": "pseudo",
		"correct": "N",
		"trial": "exp",
		"letters": "null",
		"trial_type": "html-keyboard-response",
		"trial_index": 325,
		"time_elapsed": 436984,
		"internal_node_id": "0.0-3.0-1.154"
	},
	{
		"rt": null,
		"stimulus": "+",
		"response": null,
		"trial_type": "html-keyboard-response",
		"trial_index": 326,
		"time_elapsed": 437490,
		"internal_node_id": "0.0-3.0-0.155"
	},
	{
		"rt": 1121,
		"stimulus": "gilha",
		"response": "n",
		"class": "null",
		"status": "noncog",
		"answer": "pseudo",
		"correct": "N",
		"trial": "exp",
		"letters": "null",
		"trial_type": "html-keyboard-response",
		"trial_index": 327,
		"time_elapsed": 438612,
		"internal_node_id": "0.0-3.0-1.155"
	},
	{
		"rt": null,
		"stimulus": "+",
		"response": null,
		"trial_type": "html-keyboard-response",
		"trial_index": 328,
		"time_elapsed": 439130,
		"internal_node_id": "0.0-3.0-0.156"
	},
	{
		"rt": 979,
		"stimulus": "hedoru",
		"response": "n",
		"class": "null",
		"status": "noncog",
		"answer": "pseudo",
		"correct": "N",
		"trial": "exp",
		"letters": "null",
		"trial_type": "html-keyboard-response",
		"trial_index": 329,
		"time_elapsed": 440110,
		"internal_node_id": "0.0-3.0-1.156"
	},
	{
		"rt": null,
		"stimulus": "+",
		"response": null,
		"trial_type": "html-keyboard-response",
		"trial_index": 330,
		"time_elapsed": 440619,
		"internal_node_id": "0.0-3.0-0.157"
	},
	{
		"rt": 972,
		"stimulus": "parceter",
		"response": "s",
		"class": "null",
		"status": "noncog",
		"answer": "pseudo",
		"correct": "N",
		"trial": "exp",
		"letters": "null",
		"trial_type": "html-keyboard-response",
		"trial_index": 331,
		"time_elapsed": 441592,
		"internal_node_id": "0.0-3.0-1.157"
	},
	{
		"rt": null,
		"stimulus": "+",
		"response": null,
		"trial_type": "html-keyboard-response",
		"trial_index": 332,
		"time_elapsed": 442096,
		"internal_node_id": "0.0-3.0-0.158"
	},
	{
		"rt": 2364,
		"stimulus": "revear",
		"response": "n",
		"class": "null",
		"status": "noncog",
		"answer": "pseudo",
		"correct": "N",
		"trial": "exp",
		"letters": "null",
		"trial_type": "html-keyboard-response",
		"trial_index": 333,
		"time_elapsed": 444460,
		"internal_node_id": "0.0-3.0-1.158"
	},
	{
		"rt": null,
		"stimulus": "+",
		"response": null,
		"trial_type": "html-keyboard-response",
		"trial_index": 334,
		"time_elapsed": 444978,
		"internal_node_id": "0.0-3.0-0.159"
	},
	{
		"rt": 1400,
		"stimulus": "atitro",
		"response": "n",
		"class": "null",
		"status": "noncog",
		"answer": "pseudo",
		"correct": "N",
		"trial": "exp",
		"letters": "null",
		"trial_type": "html-keyboard-response",
		"trial_index": 335,
		"time_elapsed": 446379,
		"internal_node_id": "0.0-3.0-1.159"
	},
	{
		"rt": null,
		"stimulus": "+",
		"response": null,
		"trial_type": "html-keyboard-response",
		"trial_index": 336,
		"time_elapsed": 446895,
		"internal_node_id": "0.0-3.0-0.160"
	},
	{
		"rt": 1310,
		"stimulus": "prantal",
		"response": "n",
		"class": "null",
		"status": "noncog",
		"answer": "pseudo",
		"correct": "N",
		"trial": "exp",
		"letters": "null",
		"trial_type": "html-keyboard-response",
		"trial_index": 337,
		"time_elapsed": 448207,
		"internal_node_id": "0.0-3.0-1.160"
	},
	{
		"rt": null,
		"stimulus": "+",
		"response": null,
		"trial_type": "html-keyboard-response",
		"trial_index": 338,
		"time_elapsed": 448727,
		"internal_node_id": "0.0-3.0-0.161"
	},
	{
		"rt": 2230,
		"stimulus": "candifência",
		"response": "n",
		"class": "null",
		"status": "noncog",
		"answer": "pseudo",
		"correct": "N",
		"trial": "exp",
		"letters": "null",
		"trial_type": "html-keyboard-response",
		"trial_index": 339,
		"time_elapsed": 450957,
		"internal_node_id": "0.0-3.0-1.161"
	},
	{
		"rt": null,
		"stimulus": "+",
		"response": null,
		"trial_type": "html-keyboard-response",
		"trial_index": 340,
		"time_elapsed": 451474,
		"internal_node_id": "0.0-3.0-0.162"
	},
	{
		"rt": 819,
		"stimulus": "agravar",
		"response": "s",
		"class": "v",
		"status": "cog",
		"answer": "word",
		"correct": "S",
		"trial": "exp",
		"letters": "7",
		"trial_type": "html-keyboard-response",
		"trial_index": 341,
		"time_elapsed": 452294,
		"internal_node_id": "0.0-3.0-1.162"
	},
	{
		"rt": null,
		"stimulus": "+",
		"response": null,
		"trial_type": "html-keyboard-response",
		"trial_index": 342,
		"time_elapsed": 452799,
		"internal_node_id": "0.0-3.0-0.163"
	},
	{
		"rt": 587,
		"stimulus": "especial",
		"response": "s",
		"class": "a",
		"status": "cog",
		"answer": "word",
		"correct": "S",
		"trial": "exp",
		"letters": "8",
		"trial_type": "html-keyboard-response",
		"trial_index": 343,
		"time_elapsed": 453388,
		"internal_node_id": "0.0-3.0-1.163"
	},
	{
		"rt": null,
		"stimulus": "+",
		"response": null,
		"trial_type": "html-keyboard-response",
		"trial_index": 344,
		"time_elapsed": 453897,
		"internal_node_id": "0.0-3.0-0.164"
	},
	{
		"rt": 2122,
		"stimulus": "escumo",
		"response": "n",
		"class": "null",
		"status": "noncog",
		"answer": "pseudo",
		"correct": "N",
		"trial": "exp",
		"letters": "null",
		"trial_type": "html-keyboard-response",
		"trial_index": 345,
		"time_elapsed": 456020,
		"internal_node_id": "0.0-3.0-1.164"
	},
	{
		"rt": null,
		"stimulus": "+",
		"response": null,
		"trial_type": "html-keyboard-response",
		"trial_index": 346,
		"time_elapsed": 456528,
		"internal_node_id": "0.0-3.0-0.165"
	},
	{
		"rt": 2665,
		"stimulus": "telafonir",
		"response": "n",
		"class": "null",
		"status": "noncog",
		"answer": "pseudo",
		"correct": "N",
		"trial": "exp",
		"letters": "null",
		"trial_type": "html-keyboard-response",
		"trial_index": 347,
		"time_elapsed": 459194,
		"internal_node_id": "0.0-3.0-1.165"
	},
	{
		"rt": null,
		"stimulus": "+",
		"response": null,
		"trial_type": "html-keyboard-response",
		"trial_index": 348,
		"time_elapsed": 459697,
		"internal_node_id": "0.0-3.0-0.166"
	},
	{
		"rt": 1733,
		"stimulus": "encelhor",
		"response": "n",
		"class": "null",
		"status": "noncog",
		"answer": "pseudo",
		"correct": "N",
		"trial": "exp",
		"letters": "null",
		"trial_type": "html-keyboard-response",
		"trial_index": 349,
		"time_elapsed": 461430,
		"internal_node_id": "0.0-3.0-1.166"
	},
	{
		"rt": null,
		"stimulus": "+",
		"response": null,
		"trial_type": "html-keyboard-response",
		"trial_index": 350,
		"time_elapsed": 461942,
		"internal_node_id": "0.0-3.0-0.167"
	},
	{
		"rt": 1393,
		"stimulus": "árovre",
		"response": "s",
		"class": "null",
		"status": "noncog",
		"answer": "pseudo",
		"correct": "N",
		"trial": "exp",
		"letters": "null",
		"trial_type": "html-keyboard-response",
		"trial_index": 351,
		"time_elapsed": 463336,
		"internal_node_id": "0.0-3.0-1.167"
	},
	{
		"rt": null,
		"stimulus": "+",
		"response": null,
		"trial_type": "html-keyboard-response",
		"trial_index": 352,
		"time_elapsed": 463841,
		"internal_node_id": "0.0-3.0-0.168"
	},
	{
		"rt": 3285,
		"stimulus": "hébies",
		"response": "n",
		"class": "null",
		"status": "noncog",
		"answer": "pseudo",
		"correct": "N",
		"trial": "exp",
		"letters": "null",
		"trial_type": "html-keyboard-response",
		"trial_index": 353,
		"time_elapsed": 467128,
		"internal_node_id": "0.0-3.0-1.168"
	},
	{
		"rt": null,
		"stimulus": "+",
		"response": null,
		"trial_type": "html-keyboard-response",
		"trial_index": 354,
		"time_elapsed": 467634,
		"internal_node_id": "0.0-3.0-0.169"
	},
	{
		"rt": 782,
		"stimulus": "açúcar",
		"response": "s",
		"class": "n",
		"status": "noncog",
		"answer": "word",
		"correct": "S",
		"trial": "exp",
		"letters": "6",
		"trial_type": "html-keyboard-response",
		"trial_index": 355,
		"time_elapsed": 468418,
		"internal_node_id": "0.0-3.0-1.169"
	},
	{
		"rt": null,
		"stimulus": "+",
		"response": null,
		"trial_type": "html-keyboard-response",
		"trial_index": 356,
		"time_elapsed": 468924,
		"internal_node_id": "0.0-3.0-0.170"
	},
	{
		"rt": 1457,
		"stimulus": "bandido",
		"response": "s",
		"class": "n",
		"status": "cog",
		"answer": "word",
		"correct": "S",
		"trial": "exp",
		"letters": "7",
		"trial_type": "html-keyboard-response",
		"trial_index": 357,
		"time_elapsed": 470384,
		"internal_node_id": "0.0-3.0-1.170"
	},
	{
		"rt": null,
		"stimulus": "+",
		"response": null,
		"trial_type": "html-keyboard-response",
		"trial_index": 358,
		"time_elapsed": 470890,
		"internal_node_id": "0.0-3.0-0.171"
	},
	{
		"rt": 1700,
		"stimulus": "orupas",
		"response": "n",
		"class": "null",
		"status": "noncog",
		"answer": "pseudo",
		"correct": "N",
		"trial": "exp",
		"letters": "null",
		"trial_type": "html-keyboard-response",
		"trial_index": 359,
		"time_elapsed": 472591,
		"internal_node_id": "0.0-3.0-1.171"
	},
	{
		"rt": null,
		"stimulus": "+",
		"response": null,
		"trial_type": "html-keyboard-response",
		"trial_index": 360,
		"time_elapsed": 473092,
		"internal_node_id": "0.0-3.0-0.172"
	},
	{
		"rt": 1498,
		"stimulus": "incomodar",
		"response": "s",
		"class": "v",
		"status": "noncog",
		"answer": "word",
		"correct": "S",
		"trial": "exp",
		"letters": "9",
		"trial_type": "html-keyboard-response",
		"trial_index": 361,
		"time_elapsed": 474591,
		"internal_node_id": "0.0-3.0-1.172"
	},
	{
		"rt": null,
		"stimulus": "+",
		"response": null,
		"trial_type": "html-keyboard-response",
		"trial_index": 362,
		"time_elapsed": 475105,
		"internal_node_id": "0.0-3.0-0.173"
	},
	{
		"rt": 772,
		"stimulus": "agressivo",
		"response": "s",
		"class": "a",
		"status": "cog",
		"answer": "word",
		"correct": "S",
		"trial": "exp",
		"letters": "9",
		"trial_type": "html-keyboard-response",
		"trial_index": 363,
		"time_elapsed": 475877,
		"internal_node_id": "0.0-3.0-1.173"
	},
	{
		"rt": null,
		"stimulus": "+",
		"response": null,
		"trial_type": "html-keyboard-response",
		"trial_index": 364,
		"time_elapsed": 476382,
		"internal_node_id": "0.0-3.0-0.174"
	},
	{
		"rt": 696,
		"stimulus": "filme",
		"response": "s",
		"class": "n",
		"status": "cog",
		"answer": "word",
		"correct": "S",
		"trial": "exp",
		"letters": "5",
		"trial_type": "html-keyboard-response",
		"trial_index": 365,
		"time_elapsed": 477079,
		"internal_node_id": "0.0-3.0-1.174"
	},
	{
		"rt": null,
		"stimulus": "+",
		"response": null,
		"trial_type": "html-keyboard-response",
		"trial_index": 366,
		"time_elapsed": 477584,
		"internal_node_id": "0.0-3.0-0.175"
	},
	{
		"rt": 692,
		"stimulus": "tímido",
		"response": "s",
		"class": "a",
		"status": "cog",
		"answer": "word",
		"correct": "S",
		"trial": "exp",
		"letters": "6",
		"trial_type": "html-keyboard-response",
		"trial_index": 367,
		"time_elapsed": 478277,
		"internal_node_id": "0.0-3.0-1.175"
	},
	{
		"rt": null,
		"stimulus": "+",
		"response": null,
		"trial_type": "html-keyboard-response",
		"trial_index": 368,
		"time_elapsed": 478782,
		"internal_node_id": "0.0-3.0-0.176"
	},
	{
		"rt": 2565,
		"stimulus": "podilo",
		"response": "n",
		"class": "null",
		"status": "noncog",
		"answer": "pseudo",
		"correct": "N",
		"trial": "exp",
		"letters": "null",
		"trial_type": "html-keyboard-response",
		"trial_index": 369,
		"time_elapsed": 481347,
		"internal_node_id": "0.0-3.0-1.176"
	},
	{
		"rt": null,
		"stimulus": "+",
		"response": null,
		"trial_type": "html-keyboard-response",
		"trial_index": 370,
		"time_elapsed": 481863,
		"internal_node_id": "0.0-3.0-0.177"
	},
	{
		"rt": 1065,
		"stimulus": "protas",
		"response": "n",
		"class": "null",
		"status": "noncog",
		"answer": "pseudo",
		"correct": "N",
		"trial": "exp",
		"letters": "null",
		"trial_type": "html-keyboard-response",
		"trial_index": 371,
		"time_elapsed": 482930,
		"internal_node_id": "0.0-3.0-1.177"
	},
	{
		"rt": null,
		"stimulus": "+",
		"response": null,
		"trial_type": "html-keyboard-response",
		"trial_index": 372,
		"time_elapsed": 483434,
		"internal_node_id": "0.0-3.0-0.178"
	},
	{
		"rt": 1126,
		"stimulus": "braras",
		"response": "n",
		"class": "null",
		"status": "noncog",
		"answer": "pseudo",
		"correct": "N",
		"trial": "exp",
		"letters": "null",
		"trial_type": "html-keyboard-response",
		"trial_index": 373,
		"time_elapsed": 484561,
		"internal_node_id": "0.0-3.0-1.178"
	},
	{
		"rt": null,
		"stimulus": "+",
		"response": null,
		"trial_type": "html-keyboard-response",
		"trial_index": 374,
		"time_elapsed": 485063,
		"internal_node_id": "0.0-3.0-0.179"
	},
	{
		"rt": 1664,
		"stimulus": "ideisa",
		"response": "n",
		"class": "null",
		"status": "noncog",
		"answer": "pseudo",
		"correct": "N",
		"trial": "exp",
		"letters": "null",
		"trial_type": "html-keyboard-response",
		"trial_index": 375,
		"time_elapsed": 486728,
		"internal_node_id": "0.0-3.0-1.179"
	},
	{
		"rt": null,
		"stimulus": "+",
		"response": null,
		"trial_type": "html-keyboard-response",
		"trial_index": 376,
		"time_elapsed": 487230,
		"internal_node_id": "0.0-3.0-0.180"
	},
	{
		"rt": 627,
		"stimulus": "azul",
		"response": "s",
		"class": "n",
		"status": "noncog",
		"answer": "word",
		"correct": "S",
		"trial": "exp",
		"letters": "4",
		"trial_type": "html-keyboard-response",
		"trial_index": 377,
		"time_elapsed": 487859,
		"internal_node_id": "0.0-3.0-1.180"
	},
	{
		"rt": null,
		"stimulus": "+",
		"response": null,
		"trial_type": "html-keyboard-response",
		"trial_index": 378,
		"time_elapsed": 488374,
		"internal_node_id": "0.0-3.0-0.181"
	},
	{
		"rt": 1987,
		"stimulus": "aperor",
		"response": "n",
		"class": "null",
		"status": "noncog",
		"answer": "pseudo",
		"correct": "N",
		"trial": "exp",
		"letters": "null",
		"trial_type": "html-keyboard-response",
		"trial_index": 379,
		"time_elapsed": 490360,
		"internal_node_id": "0.0-3.0-1.181"
	},
	{
		"rt": null,
		"stimulus": "+",
		"response": null,
		"trial_type": "html-keyboard-response",
		"trial_index": 380,
		"time_elapsed": 490872,
		"internal_node_id": "0.0-3.0-0.182"
	},
	{
		"rt": 1726,
		"stimulus": "crolatário",
		"response": "n",
		"class": "null",
		"status": "noncog",
		"answer": "pseudo",
		"correct": "N",
		"trial": "exp",
		"letters": "null",
		"trial_type": "html-keyboard-response",
		"trial_index": 381,
		"time_elapsed": 492599,
		"internal_node_id": "0.0-3.0-1.182"
	},
	{
		"rt": null,
		"stimulus": "+",
		"response": null,
		"trial_type": "html-keyboard-response",
		"trial_index": 382,
		"time_elapsed": 493115,
		"internal_node_id": "0.0-3.0-0.183"
	},
	{
		"rt": 553,
		"stimulus": "livro",
		"response": "s",
		"class": "n",
		"status": "cog",
		"answer": "word",
		"correct": "S",
		"trial": "exp",
		"letters": "5",
		"trial_type": "html-keyboard-response",
		"trial_index": 383,
		"time_elapsed": 493671,
		"internal_node_id": "0.0-3.0-1.183"
	},
	{
		"rt": null,
		"stimulus": "+",
		"response": null,
		"trial_type": "html-keyboard-response",
		"trial_index": 384,
		"time_elapsed": 494182,
		"internal_node_id": "0.0-3.0-0.184"
	},
	{
		"rt": 857,
		"stimulus": "multiplicar",
		"response": "s",
		"class": "v",
		"status": "cog",
		"answer": "word",
		"correct": "S",
		"trial": "exp",
		"letters": "11",
		"trial_type": "html-keyboard-response",
		"trial_index": 385,
		"time_elapsed": 495040,
		"internal_node_id": "0.0-3.0-1.184"
	},
	{
		"rt": null,
		"stimulus": "+",
		"response": null,
		"trial_type": "html-keyboard-response",
		"trial_index": 386,
		"time_elapsed": 495555,
		"internal_node_id": "0.0-3.0-0.185"
	},
	{
		"rt": 1235,
		"stimulus": "macras",
		"response": "s",
		"class": "null",
		"status": "noncog",
		"answer": "pseudo",
		"correct": "N",
		"trial": "exp",
		"letters": "null",
		"trial_type": "html-keyboard-response",
		"trial_index": 387,
		"time_elapsed": 496793,
		"internal_node_id": "0.0-3.0-1.185"
	},
	{
		"rt": null,
		"stimulus": "+",
		"response": null,
		"trial_type": "html-keyboard-response",
		"trial_index": 388,
		"time_elapsed": 497295,
		"internal_node_id": "0.0-3.0-0.186"
	},
	{
		"rt": 2022,
		"stimulus": "atapdar",
		"response": "s",
		"class": "null",
		"status": "noncog",
		"answer": "pseudo",
		"correct": "N",
		"trial": "exp",
		"letters": "null",
		"trial_type": "html-keyboard-response",
		"trial_index": 389,
		"time_elapsed": 499318,
		"internal_node_id": "0.0-3.0-1.186"
	},
	{
		"rt": null,
		"stimulus": "+",
		"response": null,
		"trial_type": "html-keyboard-response",
		"trial_index": 390,
		"time_elapsed": 499827,
		"internal_node_id": "0.0-3.0-0.187"
	},
	{
		"rt": 1777,
		"stimulus": "oricia",
		"response": "n",
		"class": "null",
		"status": "noncog",
		"answer": "pseudo",
		"correct": "N",
		"trial": "exp",
		"letters": "null",
		"trial_type": "html-keyboard-response",
		"trial_index": 391,
		"time_elapsed": 501604,
		"internal_node_id": "0.0-3.0-1.187"
	},
	{
		"rt": null,
		"stimulus": "+",
		"response": null,
		"trial_type": "html-keyboard-response",
		"trial_index": 392,
		"time_elapsed": 502123,
		"internal_node_id": "0.0-3.0-0.188"
	},
	{
		"rt": 786,
		"stimulus": "sábio",
		"response": "s",
		"class": "n",
		"status": "noncog",
		"answer": "word",
		"correct": "S",
		"trial": "exp",
		"letters": "5",
		"trial_type": "html-keyboard-response",
		"trial_index": 393,
		"time_elapsed": 502909,
		"internal_node_id": "0.0-3.0-1.188"
	},
	{
		"rt": null,
		"stimulus": "+",
		"response": null,
		"trial_type": "html-keyboard-response",
		"trial_index": 394,
		"time_elapsed": 503423,
		"internal_node_id": "0.0-3.0-0.189"
	},
	{
		"rt": 1595,
		"stimulus": "mabras",
		"response": "s",
		"class": "null",
		"status": "noncog",
		"answer": "pseudo",
		"correct": "N",
		"trial": "exp",
		"letters": "null",
		"trial_type": "html-keyboard-response",
		"trial_index": 395,
		"time_elapsed": 505020,
		"internal_node_id": "0.0-3.0-1.189"
	},
	{
		"rt": null,
		"stimulus": "+",
		"response": null,
		"trial_type": "html-keyboard-response",
		"trial_index": 396,
		"time_elapsed": 505527,
		"internal_node_id": "0.0-3.0-0.190"
	},
	{
		"rt": 1470,
		"stimulus": "ronronar",
		"response": "n",
		"class": "v",
		"status": "cog",
		"answer": "word",
		"correct": "S",
		"trial": "exp",
		"letters": "8",
		"trial_type": "html-keyboard-response",
		"trial_index": 397,
		"time_elapsed": 507000,
		"internal_node_id": "0.0-3.0-1.190"
	},
	{
		"rt": null,
		"stimulus": "+",
		"response": null,
		"trial_type": "html-keyboard-response",
		"trial_index": 398,
		"time_elapsed": 507514,
		"internal_node_id": "0.0-3.0-0.191"
	},
	{
		"rt": 837,
		"stimulus": "mania",
		"response": "s",
		"class": "n",
		"status": "cog",
		"answer": "word",
		"correct": "S",
		"trial": "exp",
		"letters": "5",
		"trial_type": "html-keyboard-response",
		"trial_index": 399,
		"time_elapsed": 508353,
		"internal_node_id": "0.0-3.0-1.191"
	},
	{
		"rt": null,
		"stimulus": "+",
		"response": null,
		"trial_type": "html-keyboard-response",
		"trial_index": 400,
		"time_elapsed": 508855,
		"internal_node_id": "0.0-3.0-0.192"
	},
	{
		"rt": 1364,
		"stimulus": "casuas",
		"response": "s",
		"class": "null",
		"status": "noncog",
		"answer": "pseudo",
		"correct": "N",
		"trial": "exp",
		"letters": "null",
		"trial_type": "html-keyboard-response",
		"trial_index": 401,
		"time_elapsed": 510221,
		"internal_node_id": "0.0-3.0-1.192"
	},
	{
		"rt": null,
		"stimulus": "+",
		"response": null,
		"trial_type": "html-keyboard-response",
		"trial_index": 402,
		"time_elapsed": 510725,
		"internal_node_id": "0.0-3.0-0.193"
	},
	{
		"rt": 2742,
		"stimulus": "beima",
		"response": "n",
		"class": "null",
		"status": "noncog",
		"answer": "pseudo",
		"correct": "N",
		"trial": "exp",
		"letters": "null",
		"trial_type": "html-keyboard-response",
		"trial_index": 403,
		"time_elapsed": 513469,
		"internal_node_id": "0.0-3.0-1.193"
	},
	{
		"rt": null,
		"stimulus": "+",
		"response": null,
		"trial_type": "html-keyboard-response",
		"trial_index": 404,
		"time_elapsed": 513971,
		"internal_node_id": "0.0-3.0-0.194"
	},
	{
		"rt": 1044,
		"stimulus": "terdia",
		"response": "n",
		"class": "null",
