[
	{
		"view_history": [
			{
				"page_index": 0,
				"viewing_time": 3345
			}
		],
		"rt": 3348,
		"trial_type": "instructions",
		"trial_index": 0,
		"time_elapsed": 3354,
		"internal_node_id": "0.0-0.0"
	},
	{
		"rt": 68580,
		"response": {
			"reading_habits_printed_magazines": "Alguns dias da semana",
			"reading_habits_printed_newspapers": "Raramente",
			"reading_habits_books": "Alguns dias da semana",
			"reading_habits_printed_socialmedias": "Todos os dias"
		},
		"question_order": [
			0,
			1,
			2,
			3
		],
		"trial_type": "survey-multi-choice",
		"trial_index": 1,
		"time_elapsed": 72054,
		"internal_node_id": "0.0-1.0"
	},
	{
		"rt": 49274,
		"response": {
			"reading_habits_virtual_magazines": "Uma vez por semana",
			"reading_habits_virtual_newspapers": "Raramente",
			"reading_habits_books": "Raramente",
			"reading_habits_virtual_socialmedias": "Todos os dias"
		},
		"question_order": [
			0,
			1,
			2,
			3
		],
		"trial_type": "survey-multi-choice",
		"trial_index": 2,
		"time_elapsed": 121439,
		"internal_node_id": "0.0-2.0"
	},
	{
		"rt": 30027,
		"response": {
			"reading_habits_other_which": "Artigos cientifica",
			"reading_habits_other_frequency": "alguns dias da semana"
		},
		"trial_type": "survey-text",
		"trial_index": 3,
		"time_elapsed": 151645,
		"internal_node_id": "0.0-3.0"
	}
]