"view_history","rt","trial_type","trial_index","time_elapsed","internal_node_id","stimulus","response","class","status","answer","correct","trial","letters"
"[{""page_index"":0,""viewing_time"":45706}]","45712","instructions","0","45848","0.0-0.0","","","","","","","",""
"","null","html-keyboard-response","1","46470","0.0-1.0-0.0","+","null","","","","","",""
"","4444","html-keyboard-response","2","50919","0.0-1.0-1.0","daja","n","null","noncog","pseudo","N","prac","null"
"","null","html-keyboard-response","3","51423","0.0-1.0-0.1","+","null","","","","","",""
"","2727","html-keyboard-response","4","54154","0.0-1.0-1.1","órgão","s","null","noncog","word","S","prac","null"
"","null","html-keyboard-response","5","54659","0.0-1.0-0.2","+","null","","","","","",""
"","3142","html-keyboard-response","6","57807","0.0-1.0-1.2","oliva","s","null","cog","word","S","prac","null"
"","null","html-keyboard-response","7","58310","0.0-1.0-0.3","+","null","","","","","",""
"","2813","html-keyboard-response","8","61124","0.0-1.0-1.3","plibar","n","null","noncog","pseudo","N","prac","null"
"","null","html-keyboard-response","9","61629","0.0-1.0-0.4","+","null","","","","","",""
"","3412","html-keyboard-response","10","65043","0.0-1.0-1.4","crante","n","null","noncog","pseudo","N","prac","null"
"","null","html-keyboard-response","11","65554","0.0-1.0-0.5","+","null","","","","","",""
"","3208","html-keyboard-response","12","68764","0.0-1.0-1.5","calmaria","s","null","noncog","word","S","prac","null"
"","null","html-keyboard-response","13","69268","0.0-1.0-0.6","+","null","","","","","",""
"","2846","html-keyboard-response","14","72115","0.0-1.0-1.6","chassi","n","null","cog","word","S","prac","null"
"[{""page_index"":0,""viewing_time"":2582}]","2582","instructions","15","74698","0.0-2.0","","","","","","","",""
"","null","html-keyboard-response","16","75316","0.0-3.0-0.0","+","null","","","","","",""
"","4894","html-keyboard-response","17","80211","0.0-3.0-1.0","crolatário","n","null","noncog","pseudo","N","exp","null"
"","null","html-keyboard-response","18","80716","0.0-3.0-0.1","+","null","","","","","",""
"","4894","html-keyboard-response","19","85612","0.0-3.0-1.1","bibarconato","n","null","noncog","pseudo","N","exp","null"
"","null","html-keyboard-response","20","86116","0.0-3.0-0.2","+","null","","","","","",""
"","3867","html-keyboard-response","21","89986","0.0-3.0-1.2","âgnulo","n","null","noncog","pseudo","N","exp","null"
"","null","html-keyboard-response","22","90488","0.0-3.0-0.3","+","null","","","","","",""
"","1946","html-keyboard-response","23","92436","0.0-3.0-1.3","montanha","s","n","cog","word","S","exp","8"
"","null","html-keyboard-response","24","92938","0.0-3.0-0.4","+","null","","","","","",""
"","1523","html-keyboard-response","25","94463","0.0-3.0-1.4","planalto","s","n","cog","word","S","exp","8"
"","null","html-keyboard-response","26","94966","0.0-3.0-0.5","+","null","","","","","",""
"","1948","html-keyboard-response","27","96916","0.0-3.0-1.5","pritas","s","null","noncog","pseudo","N","exp","null"
"","null","html-keyboard-response","28","97419","0.0-3.0-0.6","+","null","","","","","",""
"","961","html-keyboard-response","29","98381","0.0-3.0-1.6","verdade","s","n","cog","word","S","exp","7"
"","null","html-keyboard-response","30","98920","0.0-3.0-0.7","+","null","","","","","",""
"","1532","html-keyboard-response","31","100453","0.0-3.0-1.7","jastor","s","null","noncog","pseudo","N","exp","null"
"","null","html-keyboard-response","32","100962","0.0-3.0-0.8","+","null","","","","","",""
"","1983","html-keyboard-response","33","102948","0.0-3.0-1.8","cenada","s","null","noncog","pseudo","N","exp","null"
"","null","html-keyboard-response","34","103455","0.0-3.0-0.9","+","null","","","","","",""
"","3997","html-keyboard-response","35","107453","0.0-3.0-1.9","atitro","n","null","noncog","pseudo","N","exp","null"
"","null","html-keyboard-response","36","107958","0.0-3.0-0.10","+","null","","","","","",""
"","1629","html-keyboard-response","37","109590","0.0-3.0-1.10","lorfaz","n","null","noncog","pseudo","N","exp","null"
"","null","html-keyboard-response","38","110092","0.0-3.0-0.11","+","null","","","","","",""
"","1128","html-keyboard-response","39","111223","0.0-3.0-1.11","perdão","s","n","noncog","word","S","exp","6"
"","null","html-keyboard-response","40","111725","0.0-3.0-0.12","+","null","","","","","",""
"","1031","html-keyboard-response","41","112757","0.0-3.0-1.12","tinta","s","n","cog","word","S","exp","5"
"","null","html-keyboard-response","42","113260","0.0-3.0-0.13","+","null","","","","","",""
"","844","html-keyboard-response","43","114106","0.0-3.0-1.13","imitar","s","v","cog","word","S","exp","6"
"","null","html-keyboard-response","44","114609","0.0-3.0-0.14","+","null","","","","","",""
"","2979","html-keyboard-response","45","117589","0.0-3.0-1.14","disbrituir","n","null","noncog","pseudo","N","exp","null"
"","null","html-keyboard-response","46","118097","0.0-3.0-0.15","+","null","","","","","",""
"","2218","html-keyboard-response","47","120317","0.0-3.0-1.15","farcas","s","null","noncog","pseudo","N","exp","null"
"","null","html-keyboard-response","48","120819","0.0-3.0-0.16","+","null","","","","","",""
"","3154","html-keyboard-response","49","123974","0.0-3.0-1.16","ênclio","s","null","noncog","pseudo","N","exp","null"
"","null","html-keyboard-response","50","124478","0.0-3.0-0.17","+","null","","","","","",""
"","1144","html-keyboard-response","51","125624","0.0-3.0-1.17","ensuas","s","null","noncog","pseudo","N","exp","null"
"","null","html-keyboard-response","52","126149","0.0-3.0-0.18","+","null","","","","","",""
"","1544","html-keyboard-response","53","127694","0.0-3.0-1.18","usfiga","s","null","noncog","pseudo","N","exp","null"
"","null","html-keyboard-response","54","128198","0.0-3.0-0.19","+","null","","","","","",""
"","1414","html-keyboard-response","55","129615","0.0-3.0-1.19","fratos","s","null","noncog","pseudo","N","exp","null"
"","null","html-keyboard-response","56","130119","0.0-3.0-0.20","+","null","","","","","",""
"","1618","html-keyboard-response","57","131739","0.0-3.0-1.20","enxerido","s","a","noncog","word","S","exp","8"
"","null","html-keyboard-response","58","132241","0.0-3.0-0.21","+","null","","","","","",""
"","1066","html-keyboard-response","59","133310","0.0-3.0-1.21","lagoa","s","n","cog","word","S","exp","5"
"","null","html-keyboard-response","60","133812","0.0-3.0-0.22","+","null","","","","","",""
"","752","html-keyboard-response","61","134569","0.0-3.0-1.22","cinema","s","n","cog","word","S","exp","6"
"","null","html-keyboard-response","62","135091","0.0-3.0-0.23","+","null","","","","","",""
"","560","html-keyboard-response","63","135654","0.0-3.0-1.23","oper","s","null","noncog","pseudo","N","exp","null"
"","null","html-keyboard-response","64","136156","0.0-3.0-0.24","+","null","","","","","",""
"","3726","html-keyboard-response","65","139884","0.0-3.0-1.24","lagras","n","null","noncog","pseudo","N","exp","null"
"","null","html-keyboard-response","66","140387","0.0-3.0-0.25","+","null","","","","","",""
"","1401","html-keyboard-response","67","141790","0.0-3.0-1.25","burtos","s","null","noncog","pseudo","N","exp","null"
"","null","html-keyboard-response","68","142304","0.0-3.0-0.26","+","null","","","","","",""
"","792","html-keyboard-response","69","143097","0.0-3.0-1.26","adoçar","s","v","noncog","word","S","exp","6"
"","null","html-keyboard-response","70","143604","0.0-3.0-0.27","+","null","","","","","",""
"","815","html-keyboard-response","71","144424","0.0-3.0-1.27","filme","s","n","cog","word","S","exp","5"
"","null","html-keyboard-response","72","144927","0.0-3.0-0.28","+","null","","","","","",""
"","621","html-keyboard-response","73","145550","0.0-3.0-1.28","costra","s","null","noncog","pseudo","N","exp","null"
"","null","html-keyboard-response","74","146053","0.0-3.0-0.29","+","null","","","","","",""
"","1033","html-keyboard-response","75","147088","0.0-3.0-1.29","faínas","s","null","noncog","pseudo","N","exp","null"
"","null","html-keyboard-response","76","147591","0.0-3.0-0.30","+","null","","","","","",""
"","760","html-keyboard-response","77","148356","0.0-3.0-1.30","cravo","s","n","noncog","word","S","exp","5"
"","null","html-keyboard-response","78","148859","0.0-3.0-0.31","+","null","","","","","",""
"","1721","html-keyboard-response","79","150582","0.0-3.0-1.31","detative","s","null","noncog","pseudo","N","exp","null"
"","null","html-keyboard-response","80","151086","0.0-3.0-0.32","+","null","","","","","",""
"","985","html-keyboard-response","81","152074","0.0-3.0-1.32","delirar","s","v","noncog","word","S","exp","7"
"","null","html-keyboard-response","82","152576","0.0-3.0-0.33","+","null","","","","","",""
"","733","html-keyboard-response","83","153311","0.0-3.0-1.33","drama","s","n","cog","word","S","exp","5"
"","null","html-keyboard-response","84","153813","0.0-3.0-0.34","+","null","","","","","",""
"","726","html-keyboard-response","85","154541","0.0-3.0-1.34","mudança","s","n","noncog","word","S","exp","7"
"","null","html-keyboard-response","86","155044","0.0-3.0-0.35","+","null","","","","","",""
"","796","html-keyboard-response","87","155842","0.0-3.0-1.35","enxarto","s","null","noncog","pseudo","N","exp","null"
"","null","html-keyboard-response","88","156356","0.0-3.0-0.36","+","null","","","","","",""
"","1641","html-keyboard-response","89","157999","0.0-3.0-1.36","morar","s","v","noncog","word","S","exp","5"
"","null","html-keyboard-response","90","158502","0.0-3.0-0.37","+","null","","","","","",""
"","831","html-keyboard-response","91","159335","0.0-3.0-1.37","revista","s","n","cog","word","S","exp","7"
"","null","html-keyboard-response","92","159858","0.0-3.0-0.38","+","null","","","","","",""
"","1267","html-keyboard-response","93","161133","0.0-3.0-1.38","conjerto","s","null","noncog","pseudo","N","exp","null"
"","null","html-keyboard-response","94","161636","0.0-3.0-0.39","+","null","","","","","",""
"","1080","html-keyboard-response","95","162718","0.0-3.0-1.39","agressivo","s","a","cog","word","S","exp","9"
"","null","html-keyboard-response","96","163221","0.0-3.0-0.40","+","null","","","","","",""
"","1199","html-keyboard-response","97","164422","0.0-3.0-1.40","cápsula","s","n","noncog","word","S","exp","7"
"","null","html-keyboard-response","98","164930","0.0-3.0-0.41","+","null","","","","","",""
"","991","html-keyboard-response","99","165925","0.0-3.0-1.41","alfabeto","s","n","cog","word","S","exp","8"
"","null","html-keyboard-response","100","166428","0.0-3.0-0.42","+","null","","","","","",""
"","669","html-keyboard-response","101","167099","0.0-3.0-1.42","prenas","s","null","noncog","pseudo","N","exp","null"
"","null","html-keyboard-response","102","167603","0.0-3.0-0.43","+","null","","","","","",""
"","675","html-keyboard-response","103","168280","0.0-3.0-1.43","fino","s","a","cog","word","S","exp","4"
"","null","html-keyboard-response","104","168784","0.0-3.0-0.44","+","null","","","","","",""
"","1464","html-keyboard-response","105","170249","0.0-3.0-1.44","usnado","n","null","noncog","pseudo","N","exp","null"
"","null","html-keyboard-response","106","170754","0.0-3.0-0.45","+","null","","","","","",""
"","723","html-keyboard-response","107","171479","0.0-3.0-1.45","pulmão","s","n","noncog","word","S","exp","6"
"","null","html-keyboard-response","108","171982","0.0-3.0-0.46","+","null","","","","","",""
"","695","html-keyboard-response","109","172679","0.0-3.0-1.46","esperar","s","v","cog","word","S","exp","7"
"","null","html-keyboard-response","110","173183","0.0-3.0-0.47","+","null","","","","","",""
"","1156","html-keyboard-response","111","174344","0.0-3.0-1.47","alpica","s","null","noncog","pseudo","N","exp","null"
"","null","html-keyboard-response","112","174853","0.0-3.0-0.48","+","null","","","","","",""
"","792","html-keyboard-response","113","175647","0.0-3.0-1.48","frotes","s","null","noncog","pseudo","N","exp","null"
"","null","html-keyboard-response","114","176149","0.0-3.0-0.49","+","null","","","","","",""
"","728","html-keyboard-response","115","176880","0.0-3.0-1.49","taberia","s","null","noncog","pseudo","N","exp","null"
"","null","html-keyboard-response","116","177391","0.0-3.0-0.50","+","null","","","","","",""
"","764","html-keyboard-response","117","178158","0.0-3.0-1.50","cerca","s","n","noncog","word","S","exp","5"
"","null","html-keyboard-response","118","178660","0.0-3.0-0.51","+","null","","","","","",""
"","883","html-keyboard-response","119","179548","0.0-3.0-1.51","quenzina","s","null","noncog","pseudo","N","exp","null"
"","null","html-keyboard-response","120","180053","0.0-3.0-0.52","+","null","","","","","",""
"","700","html-keyboard-response","121","180756","0.0-3.0-1.52","carona","s","n","noncog","word","S","exp","6"
"","null","html-keyboard-response","122","181260","0.0-3.0-0.53","+","null","","","","","",""
"","838","html-keyboard-response","123","182100","0.0-3.0-1.53","memória","s","n","cog","word","S","exp","7"
"","null","html-keyboard-response","124","182603","0.0-3.0-0.54","+","null","","","","","",""
"","714","html-keyboard-response","125","183319","0.0-3.0-1.54","motros","s","null","noncog","pseudo","N","exp","null"
"","null","html-keyboard-response","126","183822","0.0-3.0-0.55","+","null","","","","","",""
"","1075","html-keyboard-response","127","184899","0.0-3.0-1.55","avenas","s","null","noncog","pseudo","N","exp","null"
"","null","html-keyboard-response","128","185402","0.0-3.0-0.56","+","null","","","","","",""
"","548","html-keyboard-response","129","185952","0.0-3.0-1.56","barco","s","n","cog","word","S","exp","5"
"","null","html-keyboard-response","130","186455","0.0-3.0-0.57","+","null","","","","","",""
"","583","html-keyboard-response","131","187039","0.0-3.0-1.57","viver","s","v","cog","word","S","exp","5"
"","null","html-keyboard-response","132","187543","0.0-3.0-0.58","+","null","","","","","",""
"","4918","html-keyboard-response","133","192464","0.0-3.0-1.58","beima","n","null","noncog","pseudo","N","exp","null"
"","null","html-keyboard-response","134","192988","0.0-3.0-0.59","+","null","","","","","",""
"","1789","html-keyboard-response","135","194779","0.0-3.0-1.59","sintonizar","s","v","noncog","word","S","exp","10"
"","null","html-keyboard-response","136","195287","0.0-3.0-0.60","+","null","","","","","",""
"","646","html-keyboard-response","137","195940","0.0-3.0-1.60","destino","s","n","cog","word","S","exp","7"
"","null","html-keyboard-response","138","196442","0.0-3.0-0.61","+","null","","","","","",""
"","4015","html-keyboard-response","139","200459","0.0-3.0-1.61","orupas","s","null","noncog","pseudo","N","exp","null"
"","null","html-keyboard-response","140","200963","0.0-3.0-0.62","+","null","","","","","",""
"","1754","html-keyboard-response","141","202720","0.0-3.0-1.62","dobradiça","s","n","noncog","word","S","exp","9"
"","null","html-keyboard-response","142","203222","0.0-3.0-0.63","+","null","","","","","",""
"","647","html-keyboard-response","143","203872","0.0-3.0-1.63","fofo","s","a","noncog","word","S","exp","4"
"","null","html-keyboard-response","144","204374","0.0-3.0-0.64","+","null","","","","","",""
"","585","html-keyboard-response","145","204965","0.0-3.0-1.64","macras","s","null","noncog","pseudo","N","exp","null"
"","null","html-keyboard-response","146","205471","0.0-3.0-0.65","+","null","","","","","",""
"","676","html-keyboard-response","147","206150","0.0-3.0-1.65","franda","s","null","noncog","pseudo","N","exp","null"
"","null","html-keyboard-response","148","206654","0.0-3.0-0.66","+","null","","","","","",""
"","4048","html-keyboard-response","149","210704","0.0-3.0-1.66","suipestar","n","null","noncog","pseudo","N","exp","null"
"","null","html-keyboard-response","150","211208","0.0-3.0-0.67","+","null","","","","","",""
"","1005","html-keyboard-response","151","212216","0.0-3.0-1.67","boreta","s","null","noncog","pseudo","N","exp","null"
"","null","html-keyboard-response","152","212718","0.0-3.0-0.68","+","null","","","","","",""
"","1559","html-keyboard-response","153","214279","0.0-3.0-1.68","pantufa","s","n","cog","word","S","exp","7"
"","null","html-keyboard-response","154","214782","0.0-3.0-0.69","+","null","","","","","",""
"","1713","html-keyboard-response","155","216496","0.0-3.0-1.69","resmungar","s","v","noncog","word","S","exp","9"
"","null","html-keyboard-response","156","216998","0.0-3.0-0.70","+","null","","","","","",""
"","891","html-keyboard-response","157","217891","0.0-3.0-1.70","delomir","s","null","noncog","pseudo","N","exp","null"
"","null","html-keyboard-response","158","218396","0.0-3.0-0.71","+","null","","","","","",""
"","896","html-keyboard-response","159","219295","0.0-3.0-1.71","mania","s","n","cog","word","S","exp","5"
"","null","html-keyboard-response","160","219798","0.0-3.0-0.72","+","null","","","","","",""
"","910","html-keyboard-response","161","220709","0.0-3.0-1.72","distraído","s","a","cog","word","S","exp","9"
"","null","html-keyboard-response","162","221212","0.0-3.0-0.73","+","null","","","","","",""
"","891","html-keyboard-response","163","222105","0.0-3.0-1.73","sábio","s","n","noncog","word","S","exp","5"
"","null","html-keyboard-response","164","222609","0.0-3.0-0.74","+","null","","","","","",""
"","693","html-keyboard-response","165","223304","0.0-3.0-1.74","trenos","s","null","noncog","pseudo","N","exp","null"
"","null","html-keyboard-response","166","223809","0.0-3.0-0.75","+","null","","","","","",""
"","697","html-keyboard-response","167","224508","0.0-3.0-1.75","atrasar","s","v","noncog","word","S","exp","7"
"","null","html-keyboard-response","168","225012","0.0-3.0-0.76","+","null","","","","","",""
"","987","html-keyboard-response","169","226009","0.0-3.0-1.76","tímido","s","a","cog","word","S","exp","6"
"","null","html-keyboard-response","170","226526","0.0-3.0-0.77","+","null","","","","","",""
"","908","html-keyboard-response","171","227448","0.0-3.0-1.77","especial","s","a","cog","word","S","exp","8"
"","null","html-keyboard-response","172","227951","0.0-3.0-0.78","+","null","","","","","",""
"","654","html-keyboard-response","173","228608","0.0-3.0-1.78","verde","s","a","noncog","word","S","exp","5"
"","null","html-keyboard-response","174","229115","0.0-3.0-0.79","+","null","","","","","",""
"","2306","html-keyboard-response","175","231425","0.0-3.0-1.79","preferir","s","v","cog","word","S","exp","8"
"","null","html-keyboard-response","176","231930","0.0-3.0-0.80","+","null","","","","","",""
"","1622","html-keyboard-response","177","233554","0.0-3.0-1.80","aparme","s","null","noncog","pseudo","N","exp","null"
"","null","html-keyboard-response","178","234062","0.0-3.0-0.81","+","null","","","","","",""
"","698","html-keyboard-response","179","234761","0.0-3.0-1.81","fogão","s","n","noncog","word","S","exp","5"
"","null","html-keyboard-response","180","235267","0.0-3.0-0.82","+","null","","","","","",""
"","722","html-keyboard-response","181","235992","0.0-3.0-1.82","nervoso","s","a","noncog","word","S","exp","7"
"","null","html-keyboard-response","182","236495","0.0-3.0-0.83","+","null","","","","","",""
"","627","html-keyboard-response","183","237123","0.0-3.0-1.83","raspar","s","v","noncog","word","S","exp","6"
"","null","html-keyboard-response","184","237629","0.0-3.0-0.84","+","null","","","","","",""
"","1198","html-keyboard-response","185","238829","0.0-3.0-1.84","incomodar","s","v","noncog","word","S","exp","9"
"","null","html-keyboard-response","186","239332","0.0-3.0-0.85","+","null","","","","","",""
"","572","html-keyboard-response","187","239906","0.0-3.0-1.85","dia","s","n","noncog","word","S","exp","3"
"","null","html-keyboard-response","188","240409","0.0-3.0-0.86","+","null","","","","","",""
"","606","html-keyboard-response","189","241021","0.0-3.0-1.86","espaço","s","n","cog","word","S","exp","6"
"","null","html-keyboard-response","190","241524","0.0-3.0-0.87","+","null","","","","","",""
"","2465","html-keyboard-response","191","243992","0.0-3.0-1.87","ejerro","s","null","noncog","pseudo","N","exp","null"
"","null","html-keyboard-response","192","244493","0.0-3.0-0.88","+","null","","","","","",""
"","780","html-keyboard-response","193","245275","0.0-3.0-1.88","brincar","s","v","noncog","word","S","exp","7"
"","null","html-keyboard-response","194","245778","0.0-3.0-0.89","+","null","","","","","",""
"","1356","html-keyboard-response","195","247138","0.0-3.0-1.89","parceter","s","null","noncog","pseudo","N","exp","null"
"","null","html-keyboard-response","196","247659","0.0-3.0-0.90","+","null","","","","","",""
"","839","html-keyboard-response","197","248501","0.0-3.0-1.90","bancada","s","n","noncog","word","S","exp","7"
"","null","html-keyboard-response","198","249003","0.0-3.0-0.91","+","null","","","","","",""
"","746","html-keyboard-response","199","249752","0.0-3.0-1.91","manais","s","null","noncog","pseudo","N","exp","null"
"","null","html-keyboard-response","200","250266","0.0-3.0-0.92","+","null","","","","","",""
"","853","html-keyboard-response","201","251121","0.0-3.0-1.92","filosofia","s","n","cog","word","S","exp","9"
"","null","html-keyboard-response","202","251624","0.0-3.0-0.93","+","null","","","","","",""
"","691","html-keyboard-response","203","252322","0.0-3.0-1.93","protas","s","null","noncog","pseudo","N","exp","null"
"","null","html-keyboard-response","204","252824","0.0-3.0-0.94","+","null","","","","","",""
"","590","html-keyboard-response","205","253420","0.0-3.0-1.94","nevela","s","null","noncog","pseudo","N","exp","null"
"","null","html-keyboard-response","206","253922","0.0-3.0-0.95","+","null","","","","","",""
"","604","html-keyboard-response","207","254529","0.0-3.0-1.95","árovre","s","null","noncog","pseudo","N","exp","null"
"","null","html-keyboard-response","208","255034","0.0-3.0-0.96","+","null","","","","","",""
"","1625","html-keyboard-response","209","256661","0.0-3.0-1.96","salpicado","s","a","noncog","word","S","exp","9"
"","null","html-keyboard-response","210","257165","0.0-3.0-0.97","+","null","","","","","",""
"","716","html-keyboard-response","211","257883","0.0-3.0-1.97","espinho","s","n","noncog","word","S","exp","7"
"","null","html-keyboard-response","212","258386","0.0-3.0-0.98","+","null","","","","","",""
"","538","html-keyboard-response","213","258929","0.0-3.0-1.98","aitrou","s","null","noncog","pseudo","N","exp","null"
"","null","html-keyboard-response","214","259432","0.0-3.0-0.99","+","null","","","","","",""
"","1407","html-keyboard-response","215","260841","0.0-3.0-1.99","vitrive","s","null","noncog","pseudo","N","exp","null"
"","null","html-keyboard-response","216","261350","0.0-3.0-0.100","+","null","","","","","",""
"","757","html-keyboard-response","217","262109","0.0-3.0-1.100","trabalhar","s","v","noncog","word","S","exp","9"
"","null","html-keyboard-response","218","262613","0.0-3.0-0.101","+","null","","","","","",""
"","658","html-keyboard-response","219","263273","0.0-3.0-1.101","carregar","s","v","noncog","word","S","exp","8"
"","null","html-keyboard-response","220","263775","0.0-3.0-0.102","+","null","","","","","",""
"","905","html-keyboard-response","221","264682","0.0-3.0-1.102","oricia","s","null","noncog","pseudo","N","exp","null"
"","null","html-keyboard-response","222","265195","0.0-3.0-0.103","+","null","","","","","",""
"","3343","html-keyboard-response","223","268541","0.0-3.0-1.103","dencosto","n","null","noncog","pseudo","N","exp","null"
"","null","html-keyboard-response","224","269058","0.0-3.0-0.104","+","null","","","","","",""
"","175","html-keyboard-response","225","269236","0.0-3.0-1.104","rédesa","s","null","noncog","pseudo","N","exp","null"
"","null","html-keyboard-response","226","269740","0.0-3.0-0.105","+","null","","","","","",""
"","1035","html-keyboard-response","227","270777","0.0-3.0-1.105","independente","s","a","noncog","word","S","exp","12"
"","null","html-keyboard-response","228","271280","0.0-3.0-0.106","+","null","","","","","",""
"","751","html-keyboard-response","229","272034","0.0-3.0-1.106","papai","s","n","cog","word","S","exp","5"
"","null","html-keyboard-response","230","272537","0.0-3.0-0.107","+","null","","","","","",""
"","1903","html-keyboard-response","231","274445","0.0-3.0-1.107","grátis","s","a","cog","word","S","exp","6"
"","null","html-keyboard-response","232","274949","0.0-3.0-0.108","+","null","","","","","",""
"","2122","html-keyboard-response","233","277076","0.0-3.0-1.108","casuas","n","null","noncog","pseudo","N","exp","null"
"","null","html-keyboard-response","234","277582","0.0-3.0-0.109","+","null","","","","","",""
"","801","html-keyboard-response","235","278385","0.0-3.0-1.109","socorro","s","n","noncog","word","S","exp","7"
"","null","html-keyboard-response","236","278888","0.0-3.0-0.110","+","null","","","","","",""
"","1450","html-keyboard-response","237","280346","0.0-3.0-1.110","aemaça","n","null","noncog","pseudo","N","exp","null"
"","null","html-keyboard-response","238","280848","0.0-3.0-0.111","+","null","","","","","",""
"","937","html-keyboard-response","239","281786","0.0-3.0-1.111","arranjar","s","v","cog","word","S","exp","8"
"","null","html-keyboard-response","240","282292","0.0-3.0-0.112","+","null","","","","","",""
"","1981","html-keyboard-response","241","284274","0.0-3.0-1.112","revear","s","null","noncog","pseudo","N","exp","null"
"","null","html-keyboard-response","242","284776","0.0-3.0-0.113","+","null","","","","","",""
"","1921","html-keyboard-response","243","286699","0.0-3.0-1.113","pneucania","s","null","noncog","pseudo","N","exp","null"
"","null","html-keyboard-response","244","287210","0.0-3.0-0.114","+","null","","","","","",""
"","983","html-keyboard-response","245","288194","0.0-3.0-1.114","convidado","s","n","noncog","word","S","exp","9"
"","null","html-keyboard-response","246","288698","0.0-3.0-0.115","+","null","","","","","",""
"","778","html-keyboard-response","247","289484","0.0-3.0-1.115","ofreta","s","null","noncog","pseudo","N","exp","null"
"","null","html-keyboard-response","248","289986","0.0-3.0-0.116","+","null","","","","","",""
"","1853","html-keyboard-response","249","291842","0.0-3.0-1.116","atapdar","n","null","noncog","pseudo","N","exp","null"
"","null","html-keyboard-response","250","292344","0.0-3.0-0.117","+","null","","","","","",""
"","861","html-keyboard-response","251","293208","0.0-3.0-1.117","francês","s","a","cog","word","S","exp","7"
"","null","html-keyboard-response","252","293711","0.0-3.0-0.118","+","null","","","","","",""
"","1439","html-keyboard-response","253","295157","0.0-3.0-1.118","hébies","s","null","noncog","pseudo","N","exp","null"
"","null","html-keyboard-response","254","295660","0.0-3.0-0.119","+","null","","","","","",""
"","4491","html-keyboard-response","255","300156","0.0-3.0-1.119","irratinte","n","null","noncog","pseudo","N","exp","null"
"","null","html-keyboard-response","256","300664","0.0-3.0-0.120","+","null","","","","","",""
"","4062","html-keyboard-response","257","304727","0.0-3.0-1.120","ilhure","n","null","noncog","pseudo","N","exp","null"
"","null","html-keyboard-response","258","305229","0.0-3.0-0.121","+","null","","","","","",""
"","1228","html-keyboard-response","259","306460","0.0-3.0-1.121","oecano","n","null","noncog","pseudo","N","exp","null"
"","null","html-keyboard-response","260","306963","0.0-3.0-0.122","+","null","","","","","",""
"","830","html-keyboard-response","261","307796","0.0-3.0-1.122","morija","s","null","noncog","pseudo","N","exp","null"
"","null","html-keyboard-response","262","308309","0.0-3.0-0.123","+","null","","","","","",""
"","1086","html-keyboard-response","263","309398","0.0-3.0-1.123","agravar","s","v","cog","word","S","exp","7"
"","null","html-keyboard-response","264","309903","0.0-3.0-0.124","+","null","","","","","",""
"","1336","html-keyboard-response","265","311241","0.0-3.0-1.124","fusbão","s","null","noncog","pseudo","N","exp","null"
"","null","html-keyboard-response","266","311744","0.0-3.0-0.125","+","null","","","","","",""
"","779","html-keyboard-response","267","312525","0.0-3.0-1.125","jantar","s","v","noncog","word","S","exp","6"
"","null","html-keyboard-response","268","313028","0.0-3.0-0.126","+","null","","","","","",""
"","766","html-keyboard-response","269","313796","0.0-3.0-1.126","civil","s","a","cog","word","S","exp","5"
"","null","html-keyboard-response","270","314303","0.0-3.0-0.127","+","null","","","","","",""
"","1306","html-keyboard-response","271","315611","0.0-3.0-1.127","espionar","s","v","cog","word","S","exp","8"
"","null","html-keyboard-response","272","316118","0.0-3.0-0.128","+","null","","","","","",""
"","1083","html-keyboard-response","273","317203","0.0-3.0-1.128","perbas","s","null","noncog","pseudo","N","exp","null"
"","null","html-keyboard-response","274","317705","0.0-3.0-0.129","+","null","","","","","",""
"","1042","html-keyboard-response","275","318750","0.0-3.0-1.129","aperor","s","null","noncog","pseudo","N","exp","null"
"","null","html-keyboard-response","276","319252","0.0-3.0-0.130","+","null","","","","","",""
"","2295","html-keyboard-response","277","321548","0.0-3.0-1.130","telafonir","s","null","noncog","pseudo","N","exp","null"
"","null","html-keyboard-response","278","322053","0.0-3.0-0.131","+","null","","","","","",""
"","844","html-keyboard-response","279","322902","0.0-3.0-1.131","comércio","s","n","noncog","word","S","exp","8"
"","null","html-keyboard-response","280","323417","0.0-3.0-0.132","+","null","","","","","",""
"","872","html-keyboard-response","281","324292","0.0-3.0-1.132","bandido","s","n","cog","word","S","exp","7"
"","null","html-keyboard-response","282","324796","0.0-3.0-0.133","+","null","","","","","",""
"","829","html-keyboard-response","283","325629","0.0-3.0-1.133","nivelado","s","a","cog","word","S","exp","8"
"","null","html-keyboard-response","284","326132","0.0-3.0-0.134","+","null","","","","","",""
"","1409","html-keyboard-response","285","327545","0.0-3.0-1.134","esprotiar","s","null","noncog","pseudo","N","exp","null"
"","null","html-keyboard-response","286","328049","0.0-3.0-0.135","+","null","","","","","",""
"","666","html-keyboard-response","287","328717","0.0-3.0-1.135","tela","s","n","noncog","word","S","exp","4"
"","null","html-keyboard-response","288","329222","0.0-3.0-0.136","+","null","","","","","",""
"","969","html-keyboard-response","289","330193","0.0-3.0-1.136","rovaz","s","null","noncog","pseudo","N","exp","null"
"","null","html-keyboard-response","290","330713","0.0-3.0-0.137","+","null","","","","","",""
"","647","html-keyboard-response","291","331363","0.0-3.0-1.137","pangos","s","null","noncog","pseudo","N","exp","null"
"","null","html-keyboard-response","292","331866","0.0-3.0-0.138","+","null","","","","","",""
"","709","html-keyboard-response","293","332579","0.0-3.0-1.138","aivões","s","null","noncog","pseudo","N","exp","null"
"","null","html-keyboard-response","294","333089","0.0-3.0-0.139","+","null","","","","","",""
"","1120","html-keyboard-response","295","334212","0.0-3.0-1.139","apontar","s","v","noncog","word","S","exp","7"
"","null","html-keyboard-response","296","334714","0.0-3.0-0.140","+","null","","","","","",""
"","676","html-keyboard-response","297","335397","0.0-3.0-1.140","glória","s","n","cog","word","S","exp","6"
"","null","html-keyboard-response","298","335902","0.0-3.0-0.141","+","null","","","","","",""
"","559","html-keyboard-response","299","336469","0.0-3.0-1.141","morno","s","a","noncog","word","S","exp","5"
"","null","html-keyboard-response","300","336976","0.0-3.0-0.142","+","null","","","","","",""
"","834","html-keyboard-response","301","337812","0.0-3.0-1.142","gertas","s","null","noncog","pseudo","N","exp","null"
"","null","html-keyboard-response","302","338321","0.0-3.0-0.143","+","null","","","","","",""
"","610","html-keyboard-response","303","338938","0.0-3.0-1.143","tartos","s","null","noncog","pseudo","N","exp","null"
"","null","html-keyboard-response","304","339440","0.0-3.0-0.144","+","null","","","","","",""
"","579","html-keyboard-response","305","340022","0.0-3.0-1.144","manfa","s","null","noncog","pseudo","N","exp","null"
"","null","html-keyboard-response","306","340525","0.0-3.0-0.145","+","null","","","","","",""
"","814","html-keyboard-response","307","341342","0.0-3.0-1.145","podilo","s","null","noncog","pseudo","N","exp","null"
"","null","html-keyboard-response","308","341859","0.0-3.0-0.146","+","null","","","","","",""
"","700","html-keyboard-response","309","342564","0.0-3.0-1.146","trair","s","v","cog","word","S","exp","5"
"","null","html-keyboard-response","310","343069","0.0-3.0-0.147","+","null","","","","","",""
"","868","html-keyboard-response","311","343940","0.0-3.0-1.147","pedaço","s","n","noncog","word","S","exp","6"
"","null","html-keyboard-response","312","344443","0.0-3.0-0.148","+","null","","","","","",""
"","775","html-keyboard-response","313","345220","0.0-3.0-1.148","medalha","s","n","cog","word","S","exp","7"
"","null","html-keyboard-response","314","345721","0.0-3.0-0.149","+","null","","","","","",""
"","938","html-keyboard-response","315","346660","0.0-3.0-1.149","mabras","s","null","noncog","pseudo","N","exp","null"
"","null","html-keyboard-response","316","347166","0.0-3.0-0.150","+","null","","","","","",""
"","1580","html-keyboard-response","317","348748","0.0-3.0-1.150","verceja","n","null","noncog","pseudo","N","exp","null"
"","null","html-keyboard-response","318","349250","0.0-3.0-0.151","+","null","","","","","",""
"","3943","html-keyboard-response","319","353196","0.0-3.0-1.151","candifência","s","null","noncog","pseudo","N","exp","null"
"","null","html-keyboard-response","320","353700","0.0-3.0-0.152","+","null","","","","","",""
"","732","html-keyboard-response","321","354437","0.0-3.0-1.152","chato","s","n","noncog","word","S","exp","5"
"","null","html-keyboard-response","322","354940","0.0-3.0-0.153","+","null","","","","","",""
"","2687","html-keyboard-response","323","357629","0.0-3.0-1.153","berquesa","s","null","noncog","pseudo","N","exp","null"
"","null","html-keyboard-response","324","358133","0.0-3.0-0.154","+","null","","","","","",""
"","757","html-keyboard-response","325","358892","0.0-3.0-1.154","açúcar","s","n","noncog","word","S","exp","6"
"","null","html-keyboard-response","326","359395","0.0-3.0-0.155","+","null","","","","","",""
"","1513","html-keyboard-response","327","360909","0.0-3.0-1.155","ronronar","s","v","cog","word","S","exp","8"
"","null","html-keyboard-response","328","361411","0.0-3.0-0.156","+","null","","","","","",""
"","661","html-keyboard-response","329","362078","0.0-3.0-1.156","mal","s","a","cog","word","S","exp","3"
"","null","html-keyboard-response","330","362584","0.0-3.0-0.157","+","null","","","","","",""
"","1266","html-keyboard-response","331","363852","0.0-3.0-1.157","temperar","s","v","noncog","word","S","exp","8"
"","null","html-keyboard-response","332","364355","0.0-3.0-0.158","+","null","","","","","",""
"","1047","html-keyboard-response","333","365404","0.0-3.0-1.158","cascata","s","n","noncog","word","S","exp","7"
"","null","html-keyboard-response","334","365908","0.0-3.0-0.159","+","null","","","","","",""
"","3502","html-keyboard-response","335","369413","0.0-3.0-1.159","hedoru","n","null","noncog","pseudo","N","exp","null"
"","null","html-keyboard-response","336","369916","0.0-3.0-0.160","+","null","","","","","",""
"","8711","html-keyboard-response","337","378629","0.0-3.0-1.160","gordo","s","a","noncog","word","S","exp","5"
"","null","html-keyboard-response","338","379134","0.0-3.0-0.161","+","null","","","","","",""
"","3542","html-keyboard-response","339","382678","0.0-3.0-1.161","tronca","s","null","noncog","pseudo","N","exp","null"
"","null","html-keyboard-response","340","383182","0.0-3.0-0.162","+","null","","","","","",""
"","803","html-keyboard-response","341","383986","0.0-3.0-1.162","prever","s","v","cog","word","S","exp","6"
"","null","html-keyboard-response","342","384488","0.0-3.0-0.163","+","null","","","","","",""
"","851","html-keyboard-response","343","385342","0.0-3.0-1.163","liso","s","n","noncog","word","S","exp","4"
"","null","html-keyboard-response","344","385847","0.0-3.0-0.164","+","null","","","","","",""
"","1532","html-keyboard-response","345","387381","0.0-3.0-1.164","fasdas","n","null","noncog","pseudo","N","exp","null"
"","null","html-keyboard-response","346","387884","0.0-3.0-0.165","+","null","","","","","",""
"","5712","html-keyboard-response","347","393598","0.0-3.0-1.165","nacional","s","a","cog","word","S","exp","8"
"","null","html-keyboard-response","348","394102","0.0-3.0-0.166","+","null","","","","","",""
"","1516","html-keyboard-response","349","395624","0.0-3.0-1.166","gilha","s","null","noncog","pseudo","N","exp","null"
"","null","html-keyboard-response","350","396127","0.0-3.0-0.167","+","null","","","","","",""
"","1061","html-keyboard-response","351","397190","0.0-3.0-1.167","promessa","s","n","noncog","word","S","exp","8"
"","null","html-keyboard-response","352","397692","0.0-3.0-0.168","+","null","","","","","",""
"","864","html-keyboard-response","353","398558","0.0-3.0-1.168","reduzir","s","v","cog","word","S","exp","7"
"","null","html-keyboard-response","354","399064","0.0-3.0-0.169","+","null","","","","","",""
"","1581","html-keyboard-response","355","400646","0.0-3.0-1.169","garastia","s","null","noncog","pseudo","N","exp","null"
"","null","html-keyboard-response","356","401149","0.0-3.0-0.170","+","null","","","","","",""
"","754","html-keyboard-response","357","401909","0.0-3.0-1.170","tio","s","n","noncog","word","S","exp","3"
"","null","html-keyboard-response","358","402413","0.0-3.0-0.171","+","null","","","","","",""
"","2172","html-keyboard-response","359","404586","0.0-3.0-1.171","ocinto","s","null","noncog","pseudo","N","exp","null"
"","null","html-keyboard-response","360","405092","0.0-3.0-0.172","+","null","","","","","",""
"","1651","html-keyboard-response","361","406744","0.0-3.0-1.172","bagunceira","s","a","noncog","word","S","exp","10"
"","null","html-keyboard-response","362","407251","0.0-3.0-0.173","+","null","","","","","",""
"","1444","html-keyboard-response","363","408697","0.0-3.0-1.173","senareta","s","null","noncog","pseudo","N","exp","null"
"","null","html-keyboard-response","364","409199","0.0-3.0-0.174","+","null","","","","","",""
"","685","html-keyboard-response","365","409886","0.0-3.0-1.174","pitada","s","n","noncog","word","S","exp","6"
"","null","html-keyboard-response","366","410389","0.0-3.0-0.175","+","null","","","","","",""
"","1137","html-keyboard-response","367","411528","0.0-3.0-1.175","afonher","s","null","noncog","pseudo","N","exp","null"
"","null","html-keyboard-response","368","412029","0.0-3.0-0.176","+","null","","","","","",""
"","1050","html-keyboard-response","369","413081","0.0-3.0-1.176","pega-pega","s","n","noncog","word","S","exp","8"
"","null","html-keyboard-response","370","413584","0.0-3.0-0.177","+","null","","","","","",""
"","717","html-keyboard-response","371","414303","0.0-3.0-1.177","pimada","s","null","noncog","pseudo","N","exp","null"
"","null","html-keyboard-response","372","414806","0.0-3.0-0.178","+","null","","","","","",""
"","1821","html-keyboard-response","373","416632","0.0-3.0-1.178","bracos","n","null","noncog","pseudo","N","exp","null"
"","null","html-keyboard-response","374","417137","0.0-3.0-0.179","+","null","","","","","",""
"","2202","html-keyboard-response","375","419342","0.0-3.0-1.179","dilheira","s","null","noncog","pseudo","N","exp","null"
"","null","html-keyboard-response","376","419846","0.0-3.0-0.180","+","null","","","","","",""
"","1625","html-keyboard-response","377","421472","0.0-3.0-1.180","aletiê","n","null","noncog","pseudo","N","exp","null"
"","null","html-keyboard-response","378","421974","0.0-3.0-0.181","+","null","","","","","",""
"","1232","html-keyboard-response","379","423207","0.0-3.0-1.181","braras","n","null","noncog","pseudo","N","exp","null"
"","null","html-keyboard-response","380","423709","0.0-3.0-0.182","+","null","","","","","",""
"","3196","html-keyboard-response","381","426907","0.0-3.0-1.182","promeção","s","null","noncog","pseudo","N","exp","null"
"","null","html-keyboard-response","382","427409","0.0-3.0-0.183","+","null","","","","","",""
"","1964","html-keyboard-response","383","429377","0.0-3.0-1.183","país","s","n","noncog","word","S","exp","4"
"","null","html-keyboard-response","384","429883","0.0-3.0-0.184","+","null","","","","","",""
"","1739","html-keyboard-response","385","431624","0.0-3.0-1.184","animado","s","a","noncog","word","S","exp","7"
"","null","html-keyboard-response","386","432134","0.0-3.0-0.185","+","null","","","","","",""
"","1889","html-keyboard-response","387","434028","0.0-3.0-1.185","mua","s","null","noncog","pseudo","N","exp","null"
"","null","html-keyboard-response","388","434533","0.0-3.0-0.186","+","null","","","","","",""
"","1848","html-keyboard-response","389","436384","0.0-3.0-1.186","uçar","s","null","noncog","pseudo","N","exp","null"
"","null","html-keyboard-response","390","436887","0.0-3.0-0.187","+","null","","","","","",""
"","2452","html-keyboard-response","391","439341","0.0-3.0-1.187","dacada","n","null","noncog","pseudo","N","exp","null"
"","null","html-keyboard-response","392","439850","0.0-3.0-0.188","+","null","","","","","",""
"","767","html-keyboard-response","393","440632","0.0-3.0-1.188","nome","s","n","cog","word","S","exp","4"
"","null","html-keyboard-response","394","441145","0.0-3.0-0.189","+","null","","","","","",""
"","1552","html-keyboard-response","395","442701","0.0-3.0-1.189","terdia","s","null","noncog","pseudo","N","exp","null"
"","null","html-keyboard-response","396","443209","0.0-3.0-0.190","+","null","","","","","",""
"","1222","html-keyboard-response","397","444434","0.0-3.0-1.190","euorpa","n","null","noncog","pseudo","N","exp","null"
"","null","html-keyboard-response","398","444941","0.0-3.0-0.191","+","null","","","","","",""
"","2843","html-keyboard-response","399","447786","0.0-3.0-1.191","plinta","s","null","noncog","pseudo","N","exp","null"
"","null","html-keyboard-response","400","448288","0.0-3.0-0.192","+","null","","","","","",""
"","2272","html-keyboard-response","401","450563","0.0-3.0-1.192","encelhor","s","null","noncog","pseudo","N","exp","null"
"","null","html-keyboard-response","402","451068","0.0-3.0-0.193","+","null","","","","","",""
"","1585","html-keyboard-response","403","452655","0.0-3.0-1.193","dipata","n","null","noncog","pseudo","N","exp","null"
"","null","html-keyboard-response","404","453158","0.0-3.0-0.194","+","null","","","","","",""
"","893","html-keyboard-response","405","454054","0.0-3.0-1.194","multiplicar","s","v","cog","word","S","exp","11"
"","null","html-keyboard-response","406","454558","0.0-3.0-0.195","+","null","","","","","",""
"","3071","html-keyboard-response","407","457632","0.0-3.0-1.195","risbos","n","null","noncog","pseudo","N","exp","null"
"","null","html-keyboard-response","408","458147","0.0-3.0-0.196","+","null","","","","","",""
"","4891","html-keyboard-response","409","463041","0.0-3.0-1.196","sanque","s","null","noncog","pseudo","N","exp","null"
"","null","html-keyboard-response","410","463544","0.0-3.0-0.197","+","null","","","","","",""
"","3243","html-keyboard-response","411","466789","0.0-3.0-1.197","sustentar","s","v","noncog","word","S","exp","9"
"","null","html-keyboard-response","412","467298","0.0-3.0-0.198","+","null","","","","","",""
"","836","html-keyboard-response","413","468137","0.0-3.0-1.198","anjo","s","n","cog","word","S","exp","4"
"","null","html-keyboard-response","414","468641","0.0-3.0-0.199","+","null","","","","","",""
"","5398","html-keyboard-response","415","474041","0.0-3.0-1.199","grótis","s","null","noncog","pseudo","N","exp","null"
"","null","html-keyboard-response","416","474556","0.0-3.0-0.200","+","null","","","","","",""
"","1598","html-keyboard-response","417","476156","0.0-3.0-1.200","enedro","n","null","noncog","pseudo","N","exp","null"
"","null","html-keyboard-response","418","476658","0.0-3.0-0.201","+","null","","","","","",""
"","8948","html-keyboard-response","419","485615","0.0-3.0-1.201","uchães","n","null","noncog","pseudo","N","exp","null"
"","null","html-keyboard-response","420","486124","0.0-3.0-0.202","+","null","","","","","",""
"","1082","html-keyboard-response","421","487209","0.0-3.0-1.202","areia","s","n","noncog","word","S","exp","5"
"","null","html-keyboard-response","422","487712","0.0-3.0-0.203","+","null","","","","","",""
"","2263","html-keyboard-response","423","489978","0.0-3.0-1.203","deselegante","s","a","noncog","word","S","exp","11"
"","null","html-keyboard-response","424","490483","0.0-3.0-0.204","+","null","","","","","",""
"","1950","html-keyboard-response","425","492440","0.0-3.0-1.204","ideisa","s","null","noncog","pseudo","N","exp","null"
"","null","html-keyboard-response","426","492955","0.0-3.0-0.205","+","null","","","","","",""
"","1080","html-keyboard-response","427","494038","0.0-3.0-1.205","ótimo","s","a","noncog","word","S","exp","5"
"","null","html-keyboard-response","428","494544","0.0-3.0-0.206","+","null","","","","","",""
"","3815","html-keyboard-response","429","498372","0.0-3.0-1.206","afual","s","null","noncog","pseudo","N","exp","null"
"","null","html-keyboard-response","430","498874","0.0-3.0-0.207","+","null","","","","","",""
"","645","html-keyboard-response","431","499531","0.0-3.0-1.207","melão","s","n","cog","word","S","exp","5"
"","null","html-keyboard-response","432","500033","0.0-3.0-0.208","+","null","","","","","",""
"","1405","html-keyboard-response","433","501441","0.0-3.0-1.208","esfoce","s","null","noncog","pseudo","N","exp","null"
"","null","html-keyboard-response","434","501948","0.0-3.0-0.209","+","null","","","","","",""
"","787","html-keyboard-response","435","502738","0.0-3.0-1.209","hipócrita","s","a","noncog","word","S","exp","9"
"","null","html-keyboard-response","436","503249","0.0-3.0-0.210","+","null","","","","","",""
"","887","html-keyboard-response","437","504139","0.0-3.0-1.210","azul","s","n","noncog","word","S","exp","4"
"","null","html-keyboard-response","438","504651","0.0-3.0-0.211","+","null","","","","","",""
"","1563","html-keyboard-response","439","506219","0.0-3.0-1.211","tatear","s","v","cog","word","S","exp","6"
"","null","html-keyboard-response","440","506736","0.0-3.0-0.212","+","null","","","","","",""
"","1821","html-keyboard-response","441","508565","0.0-3.0-1.212","vervas","s","null","noncog","pseudo","N","exp","null"
"","null","html-keyboard-response","442","509067","0.0-3.0-0.213","+","null","","","","","",""
"","900","html-keyboard-response","443","509969","0.0-3.0-1.213","carro","s","n","noncog","word","S","exp","5"
"","null","html-keyboard-response","444","510473","0.0-3.0-0.214","+","null","","","","","",""
"","3166","html-keyboard-response","445","513641","0.0-3.0-1.214","abieso","s","null","noncog","pseudo","N","exp","null"
"","null","html-keyboard-response","446","514143","0.0-3.0-0.215","+","null","","","","","",""
"","793","html-keyboard-response","447","514939","0.0-3.0-1.215","refletir","s","v","cog","word","S","exp","8"
"","null","html-keyboard-response","448","515442","0.0-3.0-0.216","+","null","","","","","",""
"","1376","html-keyboard-response","449","516821","0.0-3.0-1.216","traduzir","s","v","cog","word","S","exp","8"
"","null","html-keyboard-response","450","517328","0.0-3.0-0.217","+","null","","","","","",""
"","899","html-keyboard-response","451","518229","0.0-3.0-1.217","tênis","s","n","cog","word","S","exp","5"
"","null","html-keyboard-response","452","518743","0.0-3.0-0.218","+","null","","","","","",""
"","2242","html-keyboard-response","453","520988","0.0-3.0-1.218","cirado","s","null","noncog","pseudo","N","exp","null"
"","null","html-keyboard-response","454","521502","0.0-3.0-0.219","+","null","","","","","",""
"","1945","html-keyboard-response","455","523449","0.0-3.0-1.219","undivídio","n","null","noncog","pseudo","N","exp","null"
"","null","html-keyboard-response","456","523952","0.0-3.0-0.220","+","null","","","","","",""
"","8780","html-keyboard-response","457","532735","0.0-3.0-1.220","lapestra","s","null","noncog","pseudo","N","exp","null"
"","null","html-keyboard-response","458","533245","0.0-3.0-0.221","+","null","","","","","",""
"","786","html-keyboard-response","459","534040","0.0-3.0-1.221","crutas","s","null","noncog","pseudo","N","exp","null"
"","null","html-keyboard-response","460","534543","0.0-3.0-0.222","+","null","","","","","",""
"","778","html-keyboard-response","461","535323","0.0-3.0-1.222","bachir","s","null","noncog","pseudo","N","exp","null"
"","null","html-keyboard-response","462","535826","0.0-3.0-0.223","+","null","","","","","",""
"","1478","html-keyboard-response","463","537306","0.0-3.0-1.223","loaco","n","null","noncog","pseudo","N","exp","null"
"","null","html-keyboard-response","464","537810","0.0-3.0-0.224","+","null","","","","","",""
"","1044","html-keyboard-response","465","538857","0.0-3.0-1.224","telefone","s","n","cog","word","S","exp","8"
"","null","html-keyboard-response","466","539361","0.0-3.0-0.225","+","null","","","","","",""
"","948","html-keyboard-response","467","540311","0.0-3.0-1.225","instruído","s","a","noncog","word","S","exp","9"
"","null","html-keyboard-response","468","540815","0.0-3.0-0.226","+","null","","","","","",""
"","657","html-keyboard-response","469","541474","0.0-3.0-1.226","matinal","s","a","cog","word","S","exp","7"
"","null","html-keyboard-response","470","541977","0.0-3.0-0.227","+","null","","","","","",""
"","1475","html-keyboard-response","471","543458","0.0-3.0-1.227","escumo","s","null","noncog","pseudo","N","exp","null"
"","null","html-keyboard-response","472","543964","0.0-3.0-0.228","+","null","","","","","",""
"","1347","html-keyboard-response","473","545313","0.0-3.0-1.228","cristal","s","n","cog","word","S","exp","7"
"","null","html-keyboard-response","474","545817","0.0-3.0-0.229","+","null","","","","","",""
"","2644","html-keyboard-response","475","548463","0.0-3.0-1.229","gruja","n","null","noncog","pseudo","N","exp","null"
"","null","html-keyboard-response","476","548968","0.0-3.0-0.230","+","null","","","","","",""
"","1039","html-keyboard-response","477","550009","0.0-3.0-1.230","selir","s","null","noncog","pseudo","N","exp","null"
"","null","html-keyboard-response","478","550515","0.0-3.0-0.231","+","null","","","","","",""
"","1311","html-keyboard-response","479","551828","0.0-3.0-1.231","extravagante","s","a","cog","word","S","exp","12"
"","null","html-keyboard-response","480","552332","0.0-3.0-0.232","+","null","","","","","",""
"","1565","html-keyboard-response","481","553900","0.0-3.0-1.232","prantal","s","null","noncog","pseudo","N","exp","null"
"","null","html-keyboard-response","482","554404","0.0-3.0-0.233","+","null","","","","","",""
"","843","html-keyboard-response","483","555249","0.0-3.0-1.233","liberal","s","a","cog","word","S","exp","7"
"","null","html-keyboard-response","484","555754","0.0-3.0-0.234","+","null","","","","","",""
"","654","html-keyboard-response","485","556409","0.0-3.0-1.234","livro","s","n","cog","word","S","exp","5"
"","null","html-keyboard-response","486","556912","0.0-3.0-0.235","+","null","","","","","",""
"","905","html-keyboard-response","487","557819","0.0-3.0-1.235","propaganda","s","n","cog","word","S","exp","10"
"","null","html-keyboard-response","488","558322","0.0-3.0-0.236","+","null","","","","","",""
"","623","html-keyboard-response","489","558946","0.0-3.0-1.236","grave","s","a","cog","word","S","exp","5"
"","null","html-keyboard-response","490","559451","0.0-3.0-0.237","+","null","","","","","",""
"","820","html-keyboard-response","491","560273","0.0-3.0-1.237","chorão","s","a","noncog","word","S","exp","6"
"","null","html-keyboard-response","492","560777","0.0-3.0-0.238","+","null","","","","","",""
"","799","html-keyboard-response","493","561578","0.0-3.0-1.238","bambu","s","n","cog","word","S","exp","5"
"","null","html-keyboard-response","494","562083","0.0-3.0-0.239","+","null","","","","","",""
"","575","html-keyboard-response","495","562660","0.0-3.0-1.239","motre","s","null","noncog","pseudo","N","exp","null"
