[
	{
		"view_history": [
			{
				"page_index": 0,
				"viewing_time": 18433
			},
			{
				"page_index": 1,
				"viewing_time": 18237
			}
		],
		"rt": 36673,
		"trial_type": "instructions",
		"trial_index": 0,
		"time_elapsed": 36682,
		"internal_node_id": "0.0-0.0"
	},
	{
		"rt": null,
		"stimulus": "<span style= \"font-size:30px; font-family: monospace\">+</span>",
		"response": null,
		"trial_part": "fixation",
		"trial_type": "html-keyboard-response",
		"trial_index": 1,
		"time_elapsed": 37875,
		"internal_node_id": "0.0-1.0-0.0-0.0"
	},
	{
		"rt": 2339,
		"stimulus": "../audio/prac-question-1-1.mp3",
		"response": " ",
		"word": "O",
		"trial_type": "audio-keyboard-response",
		"trial_index": 2,
		"time_elapsed": 41707,
		"internal_node_id": "0.0-1.0-1.0"
	},
	{
		"rt": 1640,
		"stimulus": "../audio/prac-question-1-2.mp3",
		"response": " ",
		"word": "dia",
		"trial_type": "audio-keyboard-response",
		"trial_index": 3,
		"time_elapsed": 44194,
		"internal_node_id": "0.0-1.0-1.1"
	},
	{
		"rt": 1661,
		"stimulus": "../audio/prac-question-1-3.mp3",
		"response": " ",
		"word": "estará",
		"trial_type": "audio-keyboard-response",
		"trial_index": 4,
		"time_elapsed": 46874,
		"internal_node_id": "0.0-1.0-1.2"
	},
	{
		"rt": 1749,
		"stimulus": "../audio/prac-question-1-4.mp3",
		"response": " ",
		"word": "cheio",
		"trial_type": "audio-keyboard-response",
		"trial_index": 5,
		"time_elapsed": 49035,
		"internal_node_id": "0.0-1.0-1.3"
	},
	{
		"rt": 1211,
		"stimulus": "../audio/prac-question-1-5.mp3",
		"response": " ",
		"word": "de",
		"trial_type": "audio-keyboard-response",
		"trial_index": 6,
		"time_elapsed": 50900,
		"internal_node_id": "0.0-1.0-1.4"
	},
	{
		"rt": 1869,
		"stimulus": "../audio/prac-question-1-6.mp3",
		"response": " ",
		"word": "nuvens",
		"trial_type": "audio-keyboard-response",
		"trial_index": 7,
		"time_elapsed": 53298,
		"internal_node_id": "0.0-1.0-1.5"
	},
	{
		"rt": 4512,
		"stimulus": "../audio/prac-question-1-7.mp3",
		"response": " ",
		"word": "hoje.",
		"trial_type": "audio-keyboard-response",
		"trial_index": 8,
		"time_elapsed": 58526,
		"internal_node_id": "0.0-1.0-1.6"
	},
	{
		"rt": null,
		"stimulus": "<span style= \"font-size:30px; font-family: monospace\">+</span>",
		"response": null,
		"trial_part": "fixation",
		"trial_type": "html-keyboard-response",
		"trial_index": 9,
		"time_elapsed": 59788,
		"internal_node_id": "0.0-1.0-0.7-0.7"
	},
	{
		"rt": 1208,
		"stimulus": "../audio/prac-question-2-1.mp3",
		"response": " ",
		"word": "A",
		"trial_type": "audio-keyboard-response",
		"trial_index": 10,
		"time_elapsed": 61818,
		"internal_node_id": "0.0-1.0-1.7"
	},
	{
		"rt": 1669,
		"stimulus": "../audio/prac-question-2-2.mp3",
		"response": " ",
		"word": "caneca",
		"trial_type": "audio-keyboard-response",
		"trial_index": 11,
		"time_elapsed": 64114,
		"internal_node_id": "0.0-1.0-1.8"
	},
	{
		"rt": 1779,
		"stimulus": "../audio/prac-question-2-3.mp3",
		"response": " ",
		"word": "colorida",
		"trial_type": "audio-keyboard-response",
		"trial_index": 12,
		"time_elapsed": 66891,
		"internal_node_id": "0.0-1.0-1.9"
	},
	{
		"rt": 1309,
		"stimulus": "../audio/prac-question-2-4.mp3",
		"response": " ",
		"word": "caiu",
		"trial_type": "audio-keyboard-response",
		"trial_index": 13,
		"time_elapsed": 68896,
		"internal_node_id": "0.0-1.0-1.10"
	},
	{
		"rt": 979,
		"stimulus": "../audio/prac-question-2-5.mp3",
		"response": " ",
		"word": "da",
		"trial_type": "audio-keyboard-response",
		"trial_index": 14,
		"time_elapsed": 70580,
		"internal_node_id": "0.0-1.0-1.11"
	},
	{
		"rt": 1381,
		"stimulus": "../audio/prac-question-2-6.mp3",
		"response": " ",
		"word": "mesa",
		"trial_type": "audio-keyboard-response",
		"trial_index": 15,
		"time_elapsed": 72393,
		"internal_node_id": "0.0-1.0-1.12"
	},
	{
		"rt": 989,
		"stimulus": "../audio/prac-question-2-7.mp3",
		"response": " ",
		"word": "de",
		"trial_type": "audio-keyboard-response",
		"trial_index": 16,
		"time_elapsed": 73895,
		"internal_node_id": "0.0-1.0-1.13"
	},
	{
		"rt": 1691,
		"stimulus": "../audio/prac-question-2-8.mp3",
		"response": " ",
		"word": "jantar.",
		"trial_type": "audio-keyboard-response",
		"trial_index": 17,
		"time_elapsed": 76559,
		"internal_node_id": "0.0-1.0-1.14"
	},
	{
		"rt": 3477,
		"stimulus": "<span style=\"font-size:25px; font-family: monospace\">A caneca era colorida?</span>",
		"response": "s",
		"question": "A caneca era colorida?",
		"answer": "null",
		"trial": "prac-sent",
		"trial_type": "html-keyboard-response",
		"trial_index": 18,
		"time_elapsed": 80308,
		"internal_node_id": "0.0-1.0-2.14-0.14",
		"accuracy": false
	},
	{
		"view_history": [
			{
				"page_index": 0,
				"viewing_time": 9171
			}
		],
		"rt": 9183,
		"trial_type": "instructions",
		"trial_index": 19,
		"time_elapsed": 90003,
		"internal_node_id": "0.0-2.0"
	},
	{
		"rt": null,
		"stimulus": "<span style= \"font-size:30px; font-family: monospace\">+</span>",
		"response": null,
		"trial_part": "fixation",
		"trial_type": "html-keyboard-response",
		"trial_index": 20,
		"time_elapsed": 91118,
		"internal_node_id": "0.0-3.0-0.0-0.0"
	},
	{
		"rt": 1381,
		"stimulus": "../audio/44-1-masc.mp3",
		"response": " ",
		"word": "Meus",
		"trial_type": "audio-keyboard-response",
		"trial_index": 21,
		"time_elapsed": 93320,
		"internal_node_id": "0.0-3.0-1.0"
	},
	{
		"rt": 1221,
		"stimulus": "../audio/44-2-masc.mp3",
		"response": " ",
		"word": "irmãos",
		"trial_type": "audio-keyboard-response",
		"trial_index": 22,
		"time_elapsed": 95004,
		"internal_node_id": "0.0-3.0-1.1"
	},
	{
		"rt": 1261,
		"stimulus": "../audio/44-3-masc.mp3",
		"response": " ",
		"word": "brigam",
		"trial_type": "audio-keyboard-response",
		"trial_index": 23,
		"time_elapsed": 96763,
		"internal_node_id": "0.0-3.0-1.2"
	},
	{
		"rt": 872,
		"stimulus": "../audio/44-4-masc.mp3",
		"response": " ",
		"word": "por",
		"trial_type": "audio-keyboard-response",
		"trial_index": 24,
		"time_elapsed": 98123,
		"internal_node_id": "0.0-3.0-1.3"
	},
	{
		"rt": 1171,
		"stimulus": "../audio/44-5-masc.mp3",
		"response": " ",
		"word": "bobagem",
		"trial_type": "audio-keyboard-response",
		"trial_index": 25,
		"time_elapsed": 99837,
		"internal_node_id": "0.0-3.0-1.4"
	},
	{
		"rt": 821,
		"stimulus": "../audio/44-6-masc.mp3",
		"response": " ",
		"word": "todos",
		"trial_type": "audio-keyboard-response",
		"trial_index": 26,
		"time_elapsed": 101364,
		"internal_node_id": "0.0-3.0-1.5"
	},
	{
		"rt": 749,
		"stimulus": "../audio/44-7-masc.mp3",
		"response": " ",
		"word": "os",
		"trial_type": "audio-keyboard-response",
		"trial_index": 27,
		"time_elapsed": 102552,
		"internal_node_id": "0.0-3.0-1.6"
	},
	{
		"rt": 1301,
		"stimulus": "../audio/44-8-masc.mp3",
		"response": " ",
		"word": "dias.",
		"trial_type": "audio-keyboard-response",
		"trial_index": 28,
		"time_elapsed": 104405,
		"internal_node_id": "0.0-3.0-1.7"
	},
	{
		"rt": null,
		"stimulus": "<span style= \"font-size:30px; font-family: monospace\">+</span>",
		"response": null,
		"trial_part": "fixation",
		"trial_type": "html-keyboard-response",
		"trial_index": 29,
		"time_elapsed": 105678,
		"internal_node_id": "0.0-3.0-0.8-0.8"
	},
	{
		"rt": 739,
		"stimulus": "../audio/42-1-masc.mp3",
		"response": " ",
		"word": "Eu",
		"trial_type": "audio-keyboard-response",
		"trial_index": 30,
		"time_elapsed": 107169,
		"internal_node_id": "0.0-3.0-1.8"
	},
	{
		"rt": 731,
		"stimulus": "../audio/42-2-masc.mp3",
		"response": " ",
		"word": "fui",
		"trial_type": "audio-keyboard-response",
		"trial_index": 31,
		"time_elapsed": 108300,
		"internal_node_id": "0.0-3.0-1.9"
	},
	{
		"rt": 811,
		"stimulus": "../audio/42-3-masc.mp3",
		"response": " ",
		"word": "a",
		"trial_type": "audio-keyboard-response",
		"trial_index": 32,
		"time_elapsed": 109524,
		"internal_node_id": "0.0-3.0-1.10"
	},
	{
		"rt": 891,
		"stimulus": "../audio/42-4-masc.mp3",
		"response": " ",
		"word": "uma",
		"trial_type": "audio-keyboard-response",
		"trial_index": 33,
		"time_elapsed": 110948,
		"internal_node_id": "0.0-3.0-1.11"
	},
	{
		"rt": 800,
		"stimulus": "../audio/42-5-masc.mp3",
		"response": " ",
		"word": "loja",
		"trial_type": "audio-keyboard-response",
		"trial_index": 34,
		"time_elapsed": 112300,
		"internal_node_id": "0.0-3.0-1.12"
	},
	{
		"rt": 611,
		"stimulus": "../audio/42-6-masc.mp3",
		"response": " ",
		"word": "de",
		"trial_type": "audio-keyboard-response",
		"trial_index": 35,
		"time_elapsed": 113324,
		"internal_node_id": "0.0-3.0-1.13"
	},
	{
		"rt": 960,
		"stimulus": "../audio/42-7-masc.mp3",
		"response": " ",
		"word": "móveis",
		"trial_type": "audio-keyboard-response",
		"trial_index": 36,
		"time_elapsed": 114829,
		"internal_node_id": "0.0-3.0-1.14"
	},
	{
		"rt": 731,
		"stimulus": "../audio/42-8-masc.mp3",
		"response": " ",
		"word": "no",
		"trial_type": "audio-keyboard-response",
		"trial_index": 37,
		"time_elapsed": 116012,
		"internal_node_id": "0.0-3.0-1.15"
	},
	{
		"rt": 1600,
		"stimulus": "../audio/42-9-masc.mp3",
		"response": " ",
		"word": "bairro.",
		"trial_type": "audio-keyboard-response",
		"trial_index": 38,
		"time_elapsed": 118141,
		"internal_node_id": "0.0-3.0-1.16"
	},
	{
		"rt": null,
		"stimulus": "<span style= \"font-size:30px; font-family: monospace\">+</span>",
		"response": null,
		"trial_part": "fixation",
		"trial_type": "html-keyboard-response",
		"trial_index": 39,
		"time_elapsed": 119402,
		"internal_node_id": "0.0-3.0-0.17-0.17"
	},
	{
		"rt": 1040,
		"stimulus": "../audio/43-1-fem.mp3",
		"response": " ",
		"word": "Eu",
		"trial_type": "audio-keyboard-response",
		"trial_index": 40,
		"time_elapsed": 121157,
		"internal_node_id": "0.0-3.0-1.17"
	},
	{
		"rt": 1221,
		"stimulus": "../audio/43-2-fem.mp3",
		"response": " ",
		"word": "achei",
		"trial_type": "audio-keyboard-response",
		"trial_index": 41,
		"time_elapsed": 122984,
		"internal_node_id": "0.0-3.0-1.18"
	},
	{
		"rt": 941,
		"stimulus": "../audio/43-3-fem.mp3",
		"response": " ",
		"word": "um",
		"trial_type": "audio-keyboard-response",
		"trial_index": 42,
		"time_elapsed": 124349,
		"internal_node_id": "0.0-3.0-1.19"
	},
	{
		"rt": 1200,
		"stimulus": "../audio/43-4-fem.mp3",
		"response": " ",
		"word": "colchão",
		"trial_type": "audio-keyboard-response",
		"trial_index": 43,
		"time_elapsed": 126325,
		"internal_node_id": "0.0-3.0-1.20"
	},
	{
		"rt": 1109,
		"stimulus": "../audio/43-5-fem.mp3",
		"response": " ",
		"word": "velho",
		"trial_type": "audio-keyboard-response",
		"trial_index": 44,
		"time_elapsed": 127970,
		"internal_node_id": "0.0-3.0-1.21"
	},
	{
		"rt": 1040,
		"stimulus": "../audio/43-6-fem.mp3",
		"response": " ",
		"word": "e",
		"trial_type": "audio-keyboard-response",
		"trial_index": 45,
		"time_elapsed": 129448,
		"internal_node_id": "0.0-3.0-1.22"
	},
	{
		"rt": 1448,
		"stimulus": "../audio/43-7-fem.mp3",
		"response": " ",
		"word": "imundo",
		"trial_type": "audio-keyboard-response",
		"trial_index": 46,
		"time_elapsed": 131403,
		"internal_node_id": "0.0-3.0-1.23"
	},
	{
		"rt": 1069,
		"stimulus": "../audio/43-8-fem.mp3",
		"response": " ",
		"word": "na",
		"trial_type": "audio-keyboard-response",
		"trial_index": 47,
		"time_elapsed": 132879,
		"internal_node_id": "0.0-3.0-1.24"
	},
	{
		"rt": 2160,
		"stimulus": "../audio/43-9-fem.mp3",
		"response": " ",
		"word": "casa.",
		"trial_type": "audio-keyboard-response",
		"trial_index": 48,
		"time_elapsed": 135481,
		"internal_node_id": "0.0-3.0-1.25"
	},
	{
		"rt": null,
		"stimulus": "<span style= \"font-size:30px; font-family: monospace\">+</span>",
		"response": null,
		"trial_part": "fixation",
		"trial_type": "html-keyboard-response",
		"trial_index": 49,
		"time_elapsed": 136756,
		"internal_node_id": "0.0-3.0-0.26-0.26"
	},
	{
		"rt": 781,
		"stimulus": "../audio/41-1-fem.mp3",
		"response": " ",
		"word": "A",
		"trial_type": "audio-keyboard-response",
		"trial_index": 50,
		"time_elapsed": 138421,
		"internal_node_id": "0.0-3.0-1.26"
	},
	{
		"rt": 1309,
		"stimulus": "../audio/41-2-fem.mp3",
		"response": " ",
		"word": "novela",
		"trial_type": "audio-keyboard-response",
		"trial_index": 51,
		"time_elapsed": 140359,
		"internal_node_id": "0.0-3.0-1.27"
	},
	{
		"rt": 1040,
		"stimulus": "../audio/41-3-fem.mp3",
		"response": " ",
		"word": "falava",
		"trial_type": "audio-keyboard-response",
		"trial_index": 52,
		"time_elapsed": 141943,
		"internal_node_id": "0.0-3.0-1.28"
	},
	{
		"rt": 741,
		"stimulus": "../audio/41-4-fem.mp3",
		"response": " ",
		"word": "de",
		"trial_type": "audio-keyboard-response",
		"trial_index": 53,
		"time_elapsed": 143179,
		"internal_node_id": "0.0-3.0-1.29"
	},
	{
		"rt": 1069,
		"stimulus": "../audio/41-5-fem.mp3",
		"response": " ",
		"word": "paixão",
		"trial_type": "audio-keyboard-response",
		"trial_index": 54,
		"time_elapsed": 144805,
		"internal_node_id": "0.0-3.0-1.30"
	},
	{
		"rt": 829,
		"stimulus": "../audio/41-6-fem.mp3",
		"response": " ",
		"word": "e",
		"trial_type": "audio-keyboard-response",
		"trial_index": 55,
		"time_elapsed": 146421,
		"internal_node_id": "0.0-3.0-1.31"
	},
	{
		"rt": 1621,
		"stimulus": "../audio/41-7-fem.mp3",
		"response": " ",
		"word": "comédia.",
		"trial_type": "audio-keyboard-response",
		"trial_index": 56,
		"time_elapsed": 148579,
		"internal_node_id": "0.0-3.0-1.32"
	},
	{
		"rt": null,
		"stimulus": "<span style= \"font-size:30px; font-family: monospace\">+</span>",
		"response": null,
		"trial_part": "fixation",
		"trial_type": "html-keyboard-response",
		"trial_index": 57,
		"time_elapsed": 149859,
		"internal_node_id": "0.0-3.0-0.33-0.33"
	},
	{
		"rt": 651,
		"stimulus": "../audio/45-1-fem.mp3",
		"response": " ",
		"word": "O",
		"trial_type": "audio-keyboard-response",
		"trial_index": 58,
		"time_elapsed": 151272,
		"internal_node_id": "0.0-3.0-1.33"
	},
	{
		"rt": 981,
		"stimulus": "../audio/45-2-fem.mp3",
		"response": " ",
		"word": "homem",
		"trial_type": "audio-keyboard-response",
		"trial_index": 59,
		"time_elapsed": 152744,
		"internal_node_id": "0.0-3.0-1.34"
	},
	{
		"rt": 1029,
		"stimulus": "../audio/45-3-fem.mp3",
		"response": " ",
		"word": "pagou",
		"trial_type": "audio-keyboard-response",
		"trial_index": 60,
		"time_elapsed": 154274,
		"internal_node_id": "0.0-3.0-1.35"
	},
	{
		"rt": 789,
		"stimulus": "../audio/45-4-fem.mp3",
		"response": " ",
		"word": "o",
		"trial_type": "audio-keyboard-response",
		"trial_index": 61,
		"time_elapsed": 155814,
		"internal_node_id": "0.0-3.0-1.36"
	},
	{
		"rt": 1229,
		"stimulus": "../audio/45-5-fem.mp3",
		"response": " ",
		"word": "aluguel",
		"trial_type": "audio-keyboard-response",
		"trial_index": 62,
		"time_elapsed": 157483,
		"internal_node_id": "0.0-3.0-1.37"
	},
	{
		"rt": 811,
		"stimulus": "../audio/45-6-fem.mp3",
		"response": " ",
		"word": "com",
		"trial_type": "audio-keyboard-response",
		"trial_index": 63,
		"time_elapsed": 158832,
		"internal_node_id": "0.0-3.0-1.38"
	},
	{
		"rt": 1432,
		"stimulus": "../audio/45-7-fem.mp3",
		"response": " ",
		"word": "atraso.",
		"trial_type": "audio-keyboard-response",
		"trial_index": 64,
		"time_elapsed": 160870,
		"internal_node_id": "0.0-3.0-1.39"
	},
	{
		"rt": 3044,
		"stimulus": "<span style=\"font-size:25px; font-family: monospace\">O homem pagou o aluguel em dia?</span>",
		"response": "n",
		"question": "O homem pagou o aluguel em dia?",
		"answer": "null",
		"trial": "exp-sent",
		"trial_type": "html-keyboard-response",
		"trial_index": 65,
		"time_elapsed": 164181,
		"internal_node_id": "0.0-3.0-2.39-0.39",
		"accuracy": false
	},
	{
		"rt": null,
		"stimulus": "<span style= \"font-size:30px; font-family: monospace\">+</span>",
		"response": null,
		"trial_part": "fixation",
		"trial_type": "html-keyboard-response",
		"trial_index": 66,
		"time_elapsed": 165713,
		"internal_node_id": "0.0-3.0-0.40-0.40"
	},
	{
		"rt": 1011,
		"stimulus": "../audio/19-1-masc.mp3",
		"response": " ",
		"word": "O",
		"trial_type": "audio-keyboard-response",
		"trial_index": 67,
		"time_elapsed": 167343,
		"internal_node_id": "0.0-3.0-1.40"
	},
	{
		"rt": 880,
		"stimulus": "../audio/19-2-masc.mp3",
		"response": " ",
		"word": "menino",
		"trial_type": "audio-keyboard-response",
		"trial_index": 68,
		"time_elapsed": 168626,
		"internal_node_id": "0.0-3.0-1.41"
	},
	{
		"rt": 931,
		"stimulus": "../audio/19-3-masc.mp3",
		"response": " ",
		"word": "ganhou",
		"trial_type": "audio-keyboard-response",
		"trial_index": 69,
		"time_elapsed": 170206,
		"internal_node_id": "0.0-3.0-1.42"
	},
	{
		"rt": 821,
		"stimulus": "../audio/19-4-masc.mp3",
		"response": " ",
		"word": "uma",
		"trial_type": "audio-keyboard-response",
		"trial_index": 70,
		"time_elapsed": 171496,
		"internal_node_id": "0.0-3.0-1.43"
	},
	{
		"rt": 891,
		"stimulus": "../audio/19-5-masc.mp3",
		"response": " ",
		"word": "bala",
		"trial_type": "audio-keyboard-response",
		"trial_index": 71,
		"time_elapsed": 172791,
		"internal_node_id": "0.0-3.0-1.44"
	},
	{
		"rt": 912,
		"stimulus": "../audio/19-6-masc.mp3",
		"response": " ",
		"word": "depois",
		"trial_type": "audio-keyboard-response",
		"trial_index": 72,
		"time_elapsed": 174269,
		"internal_node_id": "0.0-3.0-1.45"
	},
	{
		"rt": 771,
		"stimulus": "../audio/19-7-masc.mp3",
		"response": " ",
		"word": "do",
		"trial_type": "audio-keyboard-response",
		"trial_index": 73,
		"time_elapsed": 175848,
		"internal_node_id": "0.0-3.0-1.46"
	},
	{
		"rt": 1789,
		"stimulus": "../audio/19-8-masc.mp3",
		"response": " ",
		"word": "almoço.",
		"trial_type": "audio-keyboard-response",
		"trial_index": 74,
		"time_elapsed": 178222,
		"internal_node_id": "0.0-3.0-1.47"
	},
	{
		"rt": null,
		"stimulus": "<span style= \"font-size:30px; font-family: monospace\">+</span>",
		"response": null,
		"trial_part": "fixation",
		"trial_type": "html-keyboard-response",
		"trial_index": 75,
		"time_elapsed": 179491,
		"internal_node_id": "0.0-3.0-0.48-0.48"
	},
	{
		"rt": 728,
		"stimulus": "../audio/16-1-fem.mp3",
		"response": " ",
		"word": "Eu",
		"trial_type": "audio-keyboard-response",
		"trial_index": 76,
		"time_elapsed": 180841,
		"internal_node_id": "0.0-3.0-1.48"
	},
	{
		"rt": 1080,
		"stimulus": "../audio/16-2-fem.mp3",
		"response": " ",
		"word": "nunca",
		"trial_type": "audio-keyboard-response",
		"trial_index": 77,
		"time_elapsed": 182447,
		"internal_node_id": "0.0-3.0-1.49"
	},
	{
		"rt": 1091,
		"stimulus": "../audio/16-3-fem.mp3",
		"response": " ",
		"word": "conheci",
		"trial_type": "audio-keyboard-response",
		"trial_index": 78,
		"time_elapsed": 184108,
		"internal_node_id": "0.0-3.0-1.50"
	},
	{
		"rt": 808,
		"stimulus": "../audio/16-4-fem.mp3",
		"response": " ",
		"word": "um",
		"trial_type": "audio-keyboard-response",
		"trial_index": 79,
		"time_elapsed": 185718,
		"internal_node_id": "0.0-3.0-1.51"
	},
	{
		"rt": 1288,
		"stimulus": "../audio/16-5-fem.mp3",
		"response": " ",
		"word": "general",
		"trial_type": "audio-keyboard-response",
		"trial_index": 80,
		"time_elapsed": 187559,
		"internal_node_id": "0.0-3.0-1.52"
	},
	{
		"rt": 760,
		"stimulus": "../audio/16-6-fem.mp3",
		"response": " ",
		"word": "do",
		"trial_type": "audio-keyboard-response",
		"trial_index": 81,
		"time_elapsed": 188743,
		"internal_node_id": "0.0-3.0-1.53"
	},
	{
		"rt": 1171,
		"stimulus": "../audio/16-7-fem.mp3",
		"response": " ",
		"word": "exército.",
		"trial_type": "audio-keyboard-response",
		"trial_index": 82,
		"time_elapsed": 190432,
		"internal_node_id": "0.0-3.0-1.54"
	},
	{
		"rt": null,
		"stimulus": "<span style= \"font-size:30px; font-family: monospace\">+</span>",
		"response": null,
		"trial_part": "fixation",
		"trial_type": "html-keyboard-response",
		"trial_index": 83,
		"time_elapsed": 191716,
		"internal_node_id": "0.0-3.0-0.55-0.55"
	},
	{
		"rt": 1261,
		"stimulus": "../audio/17-1-fem.mp3",
		"response": " ",
		"word": "Falaram",
		"trial_type": "audio-keyboard-response",
		"trial_index": 84,
		"time_elapsed": 193855,
		"internal_node_id": "0.0-3.0-1.55"
	},
	{
		"rt": 992,
		"stimulus": "../audio/17-2-fem.mp3",
		"response": " ",
		"word": "da",
		"trial_type": "audio-keyboard-response",
		"trial_index": 85,
		"time_elapsed": 195507,
		"internal_node_id": "0.0-3.0-1.56"
	},
	{
		"rt": 1080,
		"stimulus": "../audio/17-3-fem.mp3",
		"response": " ",
		"word": "lei",
		"trial_type": "audio-keyboard-response",
		"trial_index": 86,
		"time_elapsed": 196998,
		"internal_node_id": "0.0-3.0-1.57"
	},
	{
		"rt": 949,
		"stimulus": "../audio/17-4-fem.mp3",
		"response": " ",
		"word": "no",
		"trial_type": "audio-keyboard-response",
		"trial_index": 87,
		"time_elapsed": 198455,
		"internal_node_id": "0.0-3.0-1.58"
	},
	{
		"rt": 1611,
		"stimulus": "../audio/17-5-fem.mp3",
		"response": " ",
		"word": "ministério",
		"trial_type": "audio-keyboard-response",
		"trial_index": 88,
		"time_elapsed": 200583,
		"internal_node_id": "0.0-3.0-1.59"
	},
	{
		"rt": 1451,
		"stimulus": "../audio/17-6-fem.mp3",
		"response": " ",
		"word": "diversas",
		"trial_type": "audio-keyboard-response",
		"trial_index": 89,
		"time_elapsed": 203065,
		"internal_node_id": "0.0-3.0-1.60"
	},
	{
		"rt": 1840,
		"stimulus": "../audio/17-7-fem.mp3",
		"response": " ",
		"word": "vezes.",
		"trial_type": "audio-keyboard-response",
		"trial_index": 90,
		"time_elapsed": 205695,
		"internal_node_id": "0.0-3.0-1.61"
	},
	{
		"rt": null,
		"stimulus": "<span style= \"font-size:30px; font-family: monospace\">+</span>",
		"response": null,
		"trial_part": "fixation",
		"trial_type": "html-keyboard-response",
		"trial_index": 91,
		"time_elapsed": 206962,
		"internal_node_id": "0.0-3.0-0.62-0.62"
	},
	{
		"rt": 909,
		"stimulus": "../audio/18-1-masc.mp3",
		"response": " ",
		"word": "O",
		"trial_type": "audio-keyboard-response",
		"trial_index": 92,
		"time_elapsed": 208559,
		"internal_node_id": "0.0-3.0-1.62"
	},
	{
		"rt": 1629,
		"stimulus": "../audio/18-2-masc.mp3",
		"response": " ",
		"word": "enredo",
		"trial_type": "audio-keyboard-response",
		"trial_index": 93,
		"time_elapsed": 210725,
		"internal_node_id": "0.0-3.0-1.63"
	},
	{
		"rt": 821,
		"stimulus": "../audio/18-3-masc.mp3",
		"response": " ",
		"word": "traz",
		"trial_type": "audio-keyboard-response",
		"trial_index": 94,
		"time_elapsed": 212375,
		"internal_node_id": "0.0-3.0-1.64"
	},
	{
		"rt": 709,
		"stimulus": "../audio/18-4-masc.mp3",
		"response": " ",
		"word": "um",
		"trial_type": "audio-keyboard-response",
		"trial_index": 95,
		"time_elapsed": 213605,
		"internal_node_id": "0.0-3.0-1.65"
	},
	{
		"rt": 971,
		"stimulus": "../audio/18-5-masc.mp3",
		"response": " ",
		"word": "dragão",
		"trial_type": "audio-keyboard-response",
		"trial_index": 96,
		"time_elapsed": 215098,
		"internal_node_id": "0.0-3.0-1.66"
	},
	{
		"rt": 949,
		"stimulus": "../audio/18-6-masc.mp3",
		"response": " ",
		"word": "forte",
		"trial_type": "audio-keyboard-response",
		"trial_index": 97,
		"time_elapsed": 216606,
		"internal_node_id": "0.0-3.0-1.67"
	},
	{
		"rt": 760,
		"stimulus": "../audio/18-7-masc.mp3",
		"response": " ",
		"word": "e",
		"trial_type": "audio-keyboard-response",
		"trial_index": 98,
		"time_elapsed": 217860,
		"internal_node_id": "0.0-3.0-1.68"
	},
	{
		"rt": 2749,
		"stimulus": "../audio/18-8-masc.mp3",
		"response": " ",
		"word": "solitário.",
		"trial_type": "audio-keyboard-response",
		"trial_index": 99,
		"time_elapsed": 221198,
		"internal_node_id": "0.0-3.0-1.69"
	},
	{
		"rt": null,
		"stimulus": "<span style= \"font-size:30px; font-family: monospace\">+</span>",
		"response": null,
		"trial_part": "fixation",
		"trial_type": "html-keyboard-response",
		"trial_index": 100,
		"time_elapsed": 222466,
		"internal_node_id": "0.0-3.0-0.70-0.70"
	},
	{
		"rt": 760,
		"stimulus": "../audio/20-1-fem.mp3",
		"response": " ",
		"word": "O",
		"trial_type": "audio-keyboard-response",
		"trial_index": 101,
		"time_elapsed": 223996,
		"internal_node_id": "0.0-3.0-1.70"
	},
	{
		"rt": 1080,
		"stimulus": "../audio/20-2-fem.mp3",
		"response": " ",
		"word": "colega",
		"trial_type": "audio-keyboard-response",
		"trial_index": 102,
		"time_elapsed": 225832,
		"internal_node_id": "0.0-3.0-1.71"
	},
	{
		"rt": 1309,
		"stimulus": "../audio/20-3-fem.mp3",
		"response": " ",
		"word": "parecia",
		"trial_type": "audio-keyboard-response",
		"trial_index": 103,
		"time_elapsed": 227736,
		"internal_node_id": "0.0-3.0-1.72"
	},
	{
		"rt": 1091,
		"stimulus": "../audio/20-4-fem.mp3",
		"response": " ",
		"word": "muito",
		"trial_type": "audio-keyboard-response",
		"trial_index": 104,
		"time_elapsed": 229348,
		"internal_node_id": "0.0-3.0-1.73"
	},
	{
		"rt": 1400,
		"stimulus": "../audio/20-5-fem.mp3",
		"response": " ",
		"word": "gripado",
		"trial_type": "audio-keyboard-response",
		"trial_index": 105,
		"time_elapsed": 231390,
		"internal_node_id": "0.0-3.0-1.74"
	},
	{
		"rt": 880,
		"stimulus": "../audio/20-6-fem.mp3",
		"response": " ",
		"word": "no",
		"trial_type": "audio-keyboard-response",
		"trial_index": 106,
		"time_elapsed": 233023,
		"internal_node_id": "0.0-3.0-1.75"
	},
	{
		"rt": 779,
		"stimulus": "../audio/20-7-fem.mp3",
		"response": " ",
		"word": "dia",
		"trial_type": "audio-keyboard-response",
		"trial_index": 107,
		"time_elapsed": 234238,
		"internal_node_id": "0.0-3.0-1.76"
	},
	{
		"rt": 1669,
		"stimulus": "../audio/20-8-fem.mp3",
		"response": " ",
		"word": "anterior.",
		"trial_type": "audio-keyboard-response",
		"trial_index": 108,
		"time_elapsed": 236809,
		"internal_node_id": "0.0-3.0-1.77"
	},
	{
		"rt": 13968,
		"stimulus": "<span style=\"font-size:25px; font-family: monospace\">O colega parecia muito gripado?</span>",
		"response": "n",
		"question": "O colega parecia muito gripado?",
		"answer": "null",
		"trial": "exp-sent",
		"trial_type": "html-keyboard-response",
		"trial_index": 109,
		"time_elapsed": 251039,
		"internal_node_id": "0.0-3.0-2.77-0.77",
		"accuracy": false
	},
	{
		"rt": null,
		"stimulus": "<span style= \"font-size:30px; font-family: monospace\">+</span>",
		"response": null,
		"trial_part": "fixation",
		"trial_type": "html-keyboard-response",
		"trial_index": 110,
		"time_elapsed": 252575,
		"internal_node_id": "0.0-3.0-0.78-0.78"
	},
	{
		"rt": 2789,
		"stimulus": "../audio/76-1-fem.mp3",
		"response": " ",
		"word": "O",
		"trial_type": "audio-keyboard-response",
		"trial_index": 111,
		"time_elapsed": 255777,
		"internal_node_id": "0.0-3.0-1.78"
	},
	{
		"rt": 1699,
		"stimulus": "../audio/76-2-fem.mp3",
		"response": " ",
		"word": "bisavô",
		"trial_type": "audio-keyboard-response",
		"trial_index": 112,
		"time_elapsed": 257931,
		"internal_node_id": "0.0-3.0-1.79"
	},
	{
		"rt": 1192,
		"stimulus": "../audio/76-3-fem.mp3",
		"response": " ",
		"word": "comprou",
		"trial_type": "audio-keyboard-response",
		"trial_index": 113,
		"time_elapsed": 259516,
		"internal_node_id": "0.0-3.0-1.80"
	},
	{
		"rt": 749,
		"stimulus": "../audio/76-4-fem.mp3",
		"response": " ",
		"word": "um",
		"trial_type": "audio-keyboard-response",
		"trial_index": 114,
		"time_elapsed": 260580,
		"internal_node_id": "0.0-3.0-1.81"
	},
	{
		"rt": 1240,
		"stimulus": "../audio/76-5-fem.mp3",
		"response": " ",
		"word": "ralador",
		"trial_type": "audio-keyboard-response",
		"trial_index": 115,
		"time_elapsed": 262189,
		"internal_node_id": "0.0-3.0-1.82"
	},
	{
		"rt": 760,
		"stimulus": "../audio/76-6-fem.mp3",
		"response": " ",
		"word": "de",
		"trial_type": "audio-keyboard-response",
		"trial_index": 116,
		"time_elapsed": 263277,
		"internal_node_id": "0.0-3.0-1.83"
	},
	{
		"rt": 1219,
		"stimulus": "../audio/76-7-fem.mp3",
		"response": " ",
		"word": "queijo.",
		"trial_type": "audio-keyboard-response",
		"trial_index": 117,
		"time_elapsed": 264889,
		"internal_node_id": "0.0-3.0-1.84"
	},
	{
		"rt": null,
		"stimulus": "<span style= \"font-size:30px; font-family: monospace\">+</span>",
		"response": null,
		"trial_part": "fixation",
		"trial_type": "html-keyboard-response",
		"trial_index": 118,
		"time_elapsed": 266163,
		"internal_node_id": "0.0-3.0-0.85-0.85"
	},
	{
		"rt": 891,
		"stimulus": "../audio/77-1-masc.mp3",
		"response": " ",
		"word": "A",
		"trial_type": "audio-keyboard-response",
		"trial_index": 119,
		"time_elapsed": 267492,
		"internal_node_id": "0.0-3.0-1.85"
	},
	{
		"rt": 1029,
		"stimulus": "../audio/77-2-masc.mp3",
		"response": " ",
		"word": "criança",
		"trial_type": "audio-keyboard-response",
		"trial_index": 120,
		"time_elapsed": 268902,
		"internal_node_id": "0.0-3.0-1.86"
	},
	{
		"rt": 829,
		"stimulus": "../audio/77-3-masc.mp3",
		"response": " ",
		"word": "ficou",
		"trial_type": "audio-keyboard-response",
		"trial_index": 121,
		"time_elapsed": 270092,
		"internal_node_id": "0.0-3.0-1.87"
	},
	{
		"rt": 960,
		"stimulus": "../audio/77-4-masc.mp3",
		"response": " ",
		"word": "muito",
		"trial_type": "audio-keyboard-response",
		"trial_index": 122,
		"time_elapsed": 271404,
		"internal_node_id": "0.0-3.0-1.88"
	},
	{
		"rt": 829,
		"stimulus": "../audio/77-5-masc.mp3",
		"response": " ",
		"word": "feliz",
		"trial_type": "audio-keyboard-response",
		"trial_index": 123,
		"time_elapsed": 272600,
		"internal_node_id": "0.0-3.0-1.89"
	},
	{
		"rt": 811,
		"stimulus": "../audio/77-6-masc.mp3",
		"response": " ",
		"word": "com",
		"trial_type": "audio-keyboard-response",
		"trial_index": 124,
		"time_elapsed": 273754,
		"internal_node_id": "0.0-3.0-1.90"
	},
	{
		"rt": 800,
		"stimulus": "../audio/77-7-masc.mp3",
		"response": " ",
		"word": "o",
		"trial_type": "audio-keyboard-response",
		"trial_index": 125,
		"time_elapsed": 274962,
		"internal_node_id": "0.0-3.0-1.91"
	},
	{
		"rt": 1509,
		"stimulus": "../audio/77-8-masc.mp3",
		"response": " ",
		"word": "brinquedo.",
		"trial_type": "audio-keyboard-response",
		"trial_index": 126,
		"time_elapsed": 276863,
		"internal_node_id": "0.0-3.0-1.92"
	},
	{
		"rt": null,
		"stimulus": "<span style= \"font-size:30px; font-family: monospace\">+</span>",
		"response": null,
		"trial_part": "fixation",
		"trial_type": "html-keyboard-response",
		"trial_index": 127,
		"time_elapsed": 278143,
		"internal_node_id": "0.0-3.0-0.93-0.93"
	},
	{
		"rt": 749,
		"stimulus": "../audio/78-1-fem.mp3",
		"response": " ",
		"word": "Eles",
		"trial_type": "audio-keyboard-response",
		"trial_index": 128,
		"time_elapsed": 279298,
		"internal_node_id": "0.0-3.0-1.93"
	},
	{
		"rt": 981,
		"stimulus": "../audio/78-2-fem.mp3",
		"response": " ",
		"word": "trazem",
		"trial_type": "audio-keyboard-response",
		"trial_index": 129,
		"time_elapsed": 280623,
		"internal_node_id": "0.0-3.0-1.94"
	},
	{
		"rt": 760,
		"stimulus": "../audio/78-3-fem.mp3",
		"response": " ",
		"word": "um",
		"trial_type": "audio-keyboard-response",
		"trial_index": 130,
		"time_elapsed": 281715,
		"internal_node_id": "0.0-3.0-1.95"
	},
	{
		"rt": 1029,
		"stimulus": "../audio/78-4-fem.mp3",
		"response": " ",
		"word": "fato",
		"trial_type": "audio-keyboard-response",
		"trial_index": 131,
		"time_elapsed": 283095,
		"internal_node_id": "0.0-3.0-1.96"
	},
	{
		"rt": 1429,
		"stimulus": "../audio/78-5-fem.mp3",
		"response": " ",
		"word": "urgente",
		"trial_type": "audio-keyboard-response",
		"trial_index": 132,
		"time_elapsed": 284925,
		"internal_node_id": "0.0-3.0-1.97"
	},
	{
		"rt": 960,
		"stimulus": "../audio/78-6-fem.mp3",
		"response": " ",
		"word": "todos",
		"trial_type": "audio-keyboard-response",
		"trial_index": 133,
		"time_elapsed": 286282,
		"internal_node_id": "0.0-3.0-1.98"
	},
	{
		"rt": 819,
		"stimulus": "../audio/78-7-fem.mp3",
		"response": " ",
		"word": "os",
		"trial_type": "audio-keyboard-response",
		"trial_index": 134,
		"time_elapsed": 287445,
		"internal_node_id": "0.0-3.0-1.99"
	},
	{
		"rt": 1691,
		"stimulus": "../audio/78-8-fem.mp3",
		"response": " ",
		"word": "dias.",
		"trial_type": "audio-keyboard-response",
		"trial_index": 135,
		"time_elapsed": 289509,
		"internal_node_id": "0.0-3.0-1.100"
	},
	{
		"rt": null,
		"stimulus": "<span style= \"font-size:30px; font-family: monospace\">+</span>",
		"response": null,
		"trial_part": "fixation",
		"trial_type": "html-keyboard-response",
		"trial_index": 136,
		"time_elapsed": 290781,
		"internal_node_id": "0.0-3.0-0.101-0.101"
	},
	{
		"rt": 709,
		"stimulus": "../audio/79-1-fem.mp3",
		"response": " ",
		"word": "A",
		"trial_type": "audio-keyboard-response",
		"trial_index": 137,
		"time_elapsed": 291906,
		"internal_node_id": "0.0-3.0-1.101"
	},
	{
		"rt": 1341,
		"stimulus": "../audio/79-2-fem.mp3",
		"response": " ",
		"word": "médica",
		"trial_type": "audio-keyboard-response",
		"trial_index": 138,
		"time_elapsed": 293632,
		"internal_node_id": "0.0-3.0-1.102"
	},
	{
		"rt": 1360,
		"stimulus": "../audio/79-3-fem.mp3",
		"response": " ",
		"word": "verificou",
		"trial_type": "audio-keyboard-response",
		"trial_index": 139,
		"time_elapsed": 295389,
		"internal_node_id": "0.0-3.0-1.103"
	},
	{
		"rt": 960,
		"stimulus": "../audio/79-4-fem.mp3",
		"response": " ",
		"word": "a",
		"trial_type": "audio-keyboard-response",
		"trial_index": 140,
		"time_elapsed": 296693,
		"internal_node_id": "0.0-3.0-1.104"
	},
	{
		"rt": 1461,
		"stimulus": "../audio/79-5-fem.mp3",
		"response": " ",
		"word": "gengiva",
		"trial_type": "audio-keyboard-response",
		"trial_index": 141,
		"time_elapsed": 298582,
		"internal_node_id": "0.0-3.0-1.105"
	},
	{
		"rt": 1011,
		"stimulus": "../audio/79-6-fem.mp3",
		"response": " ",
		"word": "por",
		"trial_type": "audio-keyboard-response",
		"trial_index": 142,
		"time_elapsed": 299911,
		"internal_node_id": "0.0-3.0-1.106"
	},
	{
		"rt": 2611,
		"stimulus": "../audio/79-7-fem.mp3",
		"response": " ",
		"word": "último.",
		"trial_type": "audio-keyboard-response",
		"trial_index": 143,
		"time_elapsed": 302870,
		"internal_node_id": "0.0-3.0-1.107"
	},
	{
		"rt": null,
		"stimulus": "<span style= \"font-size:30px; font-family: monospace\">+</span>",
		"response": null,
		"trial_part": "fixation",
		"trial_type": "html-keyboard-response",
		"trial_index": 144,
		"time_elapsed": 304127,
		"internal_node_id": "0.0-3.0-0.108-0.108"
	},
	{
		"rt": 1011,
		"stimulus": "../audio/80-1-masc.mp3",
		"response": " ",
		"word": "Meu",
		"trial_type": "audio-keyboard-response",
		"trial_index": 145,
		"time_elapsed": 305614,
		"internal_node_id": "0.0-3.0-1.108"
	},
	{
		"rt": 928,
		"stimulus": "../audio/80-2-masc.mp3",
		"response": " ",
		"word": "primo",
		"trial_type": "audio-keyboard-response",
		"trial_index": 146,
		"time_elapsed": 306925,
		"internal_node_id": "0.0-3.0-1.109"
	},
	{
		"rt": 971,
		"stimulus": "../audio/80-3-masc.mp3",
		"response": " ",
		"word": "conheceu",
		"trial_type": "audio-keyboard-response",
		"trial_index": 147,
		"time_elapsed": 308294,
		"internal_node_id": "0.0-3.0-1.110"
	},
	{
		"rt": 1061,
		"stimulus": "../audio/80-4-masc.mp3",
		"response": " ",
		"word": "um",
		"trial_type": "audio-keyboard-response",
		"trial_index": 148,
		"time_elapsed": 309703,
		"internal_node_id": "0.0-3.0-1.111"
	},
	{
		"rt": 989,
		"stimulus": "../audio/80-5-masc.mp3",
		"response": " ",
		"word": "jovem",
		"trial_type": "audio-keyboard-response",
		"trial_index": 149,
		"time_elapsed": 311061,
		"internal_node_id": "0.0-3.0-1.112"
	},
	{
		"rt": 1149,
		"stimulus": "../audio/80-6-masc.mp3",
		"response": " ",
		"word": "amável",
		"trial_type": "audio-keyboard-response",
		"trial_index": 150,
		"time_elapsed": 312622,
		"internal_node_id": "0.0-3.0-1.113"
	},
	{
		"rt": 1032,
		"stimulus": "../audio/80-7-masc.mp3",
		"response": " ",
		"word": "e",
		"trial_type": "audio-keyboard-response",
		"trial_index": 151,
		"time_elapsed": 313988,
		"internal_node_id": "0.0-3.0-1.114"
	},
	{
		"rt": 4419,
		"stimulus": "../audio/80-8-masc.mp3",
		"response": " ",
		"word": "confiante.",
		"trial_type": "audio-keyboard-response",
		"trial_index": 152,
		"time_elapsed": 318816,
		"internal_node_id": "0.0-3.0-1.115"
	},
	{
		"rt": 3994,
		"stimulus": "<span style=\"font-size:25px; font-family: monospace\">O primo conheceu um jovem irritante?</span>",
		"response": "n",
		"question": "O primo conheceu um jovem irritante?",
		"answer": "null",
		"trial": "exp-sent",
		"trial_type": "html-keyboard-response",
		"trial_index": 153,
		"time_elapsed": 323075,
		"internal_node_id": "0.0-3.0-2.115-0.115",
		"accuracy": false
	},
	{
		"rt": null,
		"stimulus": "<span style= \"font-size:30px; font-family: monospace\">+</span>",
		"response": null,
		"trial_part": "fixation",
		"trial_type": "html-keyboard-response",
		"trial_index": 154,
		"time_elapsed": 324591,
		"internal_node_id": "0.0-3.0-0.116-0.116"
	},
	{
		"rt": 1269,
		"stimulus": "../audio/33-1-fem.mp3",
		"response": " ",
		"word": "Eles",
		"trial_type": "audio-keyboard-response",
		"trial_index": 155,
		"time_elapsed": 326265,
		"internal_node_id": "0.0-3.0-1.116"
	},
	{
		"rt": 1251,
		"stimulus": "../audio/33-2-fem.mp3",
		"response": " ",
		"word": "sabem",
		"trial_type": "audio-keyboard-response",
		"trial_index": 156,
		"time_elapsed": 327898,
		"internal_node_id": "0.0-3.0-1.117"
	},
	{
		"rt": 819,
		"stimulus": "../audio/33-3-fem.mp3",
		"response": " ",
		"word": "do",
		"trial_type": "audio-keyboard-response",
		"trial_index": 157,
		"time_elapsed": 329048,
		"internal_node_id": "0.0-3.0-1.118"
	},
	{
		"rt": 1099,
		"stimulus": "../audio/33-4-fem.mp3",
		"response": " ",
		"word": "seu",
		"trial_type": "audio-keyboard-response",
		"trial_index": 158,
		"time_elapsed": 330526,
		"internal_node_id": "0.0-3.0-1.119"
	},
	{
		"rt": 1229,
		"stimulus": "../audio/33-5-fem.mp3",
		"response": " ",
		"word": "privilégio",
		"trial_type": "audio-keyboard-response",
		"trial_index": 159,
		"time_elapsed": 332145,
		"internal_node_id": "0.0-3.0-1.120"
	},
	{
		"rt": 1141,
		"stimulus": "../audio/33-6-fem.mp3",
		"response": " ",
		"word": "nessa",
		"trial_type": "audio-keyboard-response",
		"trial_index": 160,
		"time_elapsed": 333678,
		"internal_node_id": "0.0-3.0-1.121"
	},
	{
		"rt": 1899,
		"stimulus": "../audio/33-7-fem.mp3",
		"response": " ",
		"word": "confusão.",
		"trial_type": "audio-keyboard-response",
		"trial_index": 161,
		"time_elapsed": 335966,
		"internal_node_id": "0.0-3.0-1.122"
	},
	{
		"rt": null,
		"stimulus": "<span style= \"font-size:30px; font-family: monospace\">+</span>",
		"response": null,
		"trial_part": "fixation",
		"trial_type": "html-keyboard-response",
		"trial_index": 162,
		"time_elapsed": 337240,
		"internal_node_id": "0.0-3.0-0.123-0.123"
	},
	{
		"rt": 1269,
		"stimulus": "../audio/34-1-fem.mp3",
		"response": " ",
		"word": "Cobrança",
		"trial_type": "audio-keyboard-response",
		"trial_index": 163,
		"time_elapsed": 338974,
		"internal_node_id": "0.0-3.0-1.123"
	},
	{
		"rt": 1592,
		"stimulus": "../audio/34-2-fem.mp3",
		"response": " ",
		"word": "excessiva",
		"trial_type": "audio-keyboard-response",
		"trial_index": 164,
		"time_elapsed": 340951,
		"internal_node_id": "0.0-3.0-1.124"
	},
	{
		"rt": 851,
		"stimulus": "../audio/34-3-fem.mp3",
		"response": " ",
		"word": "é",
		"trial_type": "audio-keyboard-response",
		"trial_index": 165,
		"time_elapsed": 342145,
		"internal_node_id": "0.0-3.0-1.125"
	},
	{
		"rt": 829,
		"stimulus": "../audio/34-4-fem.mp3",
		"response": " ",
		"word": "um",
		"trial_type": "audio-keyboard-response",
		"trial_index": 166,
		"time_elapsed": 343334,
		"internal_node_id": "0.0-3.0-1.126"
	},
	{
		"rt": 1200,
		"stimulus": "../audio/34-5-fem.mp3",
		"response": " ",
		"word": "fardo",
		"trial_type": "audio-keyboard-response",
		"trial_index": 167,
		"time_elapsed": 344902,
		"internal_node_id": "0.0-3.0-1.127"
	},
	{
		"rt": 1080,
		"stimulus": "../audio/34-6-fem.mp3",
		"response": " ",
		"word": "para",
		"trial_type": "audio-keyboard-response",
		"trial_index": 168,
		"time_elapsed": 346383,
		"internal_node_id": "0.0-3.0-1.128"
	},
	{
		"rt": 1408,
		"stimulus": "../audio/34-7-fem.mp3",
		"response": " ",
		"word": "a",
		"trial_type": "audio-keyboard-response",
		"trial_index": 169,
		"time_elapsed": 348124,
		"internal_node_id": "0.0-3.0-1.129"
	},
	{
		"rt": 4840,
		"stimulus": "../audio/34-8-fem.mp3",
		"response": " ",
		"word": "cabeça.",
		"trial_type": "audio-keyboard-response",
		"trial_index": 170,
		"time_elapsed": 353345,
		"internal_node_id": "0.0-3.0-1.130"
	},
	{
		"rt": null,
		"stimulus": "<span style= \"font-size:30px; font-family: monospace\">+</span>",
		"response": null,
		"trial_part": "fixation",
		"trial_type": "html-keyboard-response",
		"trial_index": 171,
		"time_elapsed": 354616,
		"internal_node_id": "0.0-3.0-0.131-0.131"
	},
	{
		"rt": 880,
		"stimulus": "../audio/32-1-masc.mp3",
		"response": " ",
		"word": "A",
		"trial_type": "audio-keyboard-response",
		"trial_index": 172,
		"time_elapsed": 355894,
		"internal_node_id": "0.0-3.0-1.131"
	},
	{
		"rt": 931,
		"stimulus": "../audio/32-2-masc.mp3",
		"response": " ",
		"word": "tia",
		"trial_type": "audio-keyboard-response",
		"trial_index": 173,
		"time_elapsed": 357222,
		"internal_node_id": "0.0-3.0-1.132"
	},
	{
		"rt": 909,
		"stimulus": "../audio/32-3-masc.mp3",
		"response": " ",
		"word": "comprou",
		"trial_type": "audio-keyboard-response",
		"trial_index": 174,
		"time_elapsed": 358540,
		"internal_node_id": "0.0-3.0-1.133"
	},
	{
		"rt": 760,
		"stimulus": "../audio/32-4-masc.mp3",
		"response": " ",
		"word": "um",
		"trial_type": "audio-keyboard-response",
		"trial_index": 175,
		"time_elapsed": 359655,
		"internal_node_id": "0.0-3.0-1.134"
	},
	{
		"rt": 1019,
		"stimulus": "../audio/32-5-masc.mp3",
		"response": " ",
		"word": "pilão",
		"trial_type": "audio-keyboard-response",
		"trial_index": 176,
		"time_elapsed": 361055,
		"internal_node_id": "0.0-3.0-1.135"
	},
	{
		"rt": 979,
		"stimulus": "../audio/32-6-masc.mp3",
		"response": " ",
		"word": "para",
		"trial_type": "audio-keyboard-response",
		"trial_index": 177,
		"time_elapsed": 362401,
		"internal_node_id": "0.0-3.0-1.136"
	},
	{
		"rt": 1229,
		"stimulus": "../audio/32-7-masc.mp3",
		"response": " ",
		"word": "a",
		"trial_type": "audio-keyboard-response",
		"trial_index": 178,
		"time_elapsed": 363972,
		"internal_node_id": "0.0-3.0-1.137"
	},
	{
		"rt": 1621,
		"stimulus": "../audio/32-8-masc.mp3",
		"response": " ",
		"word": "cozinha.",
		"trial_type": "audio-keyboard-response",
		"trial_index": 179,
		"time_elapsed": 365951,
		"internal_node_id": "0.0-3.0-1.138"
	},
	{
		"rt": null,
		"stimulus": "<span style= \"font-size:30px; font-family: monospace\">+</span>",
		"response": null,
		"trial_part": "fixation",
		"trial_type": "html-keyboard-response",
		"trial_index": 180,
		"time_elapsed": 367215,
		"internal_node_id": "0.0-3.0-0.139-0.139"
	},
	{
		"rt": 789,
		"stimulus": "../audio/31-1-masc.mp3",
		"response": " ",
		"word": "O",
		"trial_type": "audio-keyboard-response",
		"trial_index": 181,
		"time_elapsed": 368447,
		"internal_node_id": "0.0-3.0-1.139"
	},
	{
		"rt": 1168,
		"stimulus": "../audio/31-2-masc.mp3",
		"response": " ",
		"word": "padeiro",
		"trial_type": "audio-keyboard-response",
		"trial_index": 182,
		"time_elapsed": 369960,
		"internal_node_id": "0.0-3.0-1.140"
	},
	{
		"rt": 949,
		"stimulus": "../audio/31-3-masc.mp3",
		"response": " ",
		"word": "usou",
		"trial_type": "audio-keyboard-response",
		"trial_index": 183,
		"time_elapsed": 371265,
		"internal_node_id": "0.0-3.0-1.141"
	},
	{
		"rt": 840,
		"stimulus": "../audio/31-4-masc.mp3",
		"response": " ",
		"word": "a",
		"trial_type": "audio-keyboard-response",
		"trial_index": 184,
		"time_elapsed": 372448,
		"internal_node_id": "0.0-3.0-1.142"
	},
	{
		"rt": 1109,
		"stimulus": "../audio/31-5-masc.mp3",
		"response": " ",
		"word": "balança",
		"trial_type": "audio-keyboard-response",
		"trial_index": 185,
		"time_elapsed": 373933,
		"internal_node_id": "0.0-3.0-1.143"
	},
	{
		"rt": 851,
		"stimulus": "../audio/31-6-masc.mp3",
		"response": " ",
		"word": "o",
		"trial_type": "audio-keyboard-response",
		"trial_index": 186,
		"time_elapsed": 375191,
		"internal_node_id": "0.0-3.0-1.144"
	},
	{
		"rt": 888,
		"stimulus": "../audio/31-7-masc.mp3",
		"response": " ",
		"word": "dia",
		"trial_type": "audio-keyboard-response",
		"trial_index": 187,
		"time_elapsed": 376402,
		"internal_node_id": "0.0-3.0-1.145"
	},
	{
		"rt": 1371,
		"stimulus": "../audio/31-8-masc.mp3",
		"response": " ",
		"word": "inteiro.",
		"trial_type": "audio-keyboard-response",
		"trial_index": 188,
		"time_elapsed": 378104,
		"internal_node_id": "0.0-3.0-1.146"
	},
	{
		"rt": null,
		"stimulus": "<span style= \"font-size:30px; font-family: monospace\">+</span>",
		"response": null,
		"trial_part": "fixation",
		"trial_type": "html-keyboard-response",
		"trial_index": 189,
		"time_elapsed": 379370,
		"internal_node_id": "0.0-3.0-0.147-0.147"
	},
	{
		"rt": 680,
		"stimulus": "../audio/35-1-masc.mp3",
		"response": " ",
		"word": "A",
		"trial_type": "audio-keyboard-response",
		"trial_index": 190,
		"time_elapsed": 380444,
		"internal_node_id": "0.0-3.0-1.147"
	},
	{
		"rt": 1299,
		"stimulus": "../audio/35-2-masc.mp3",
		"response": " ",
		"word": "receita",
		"trial_type": "audio-keyboard-response",
		"trial_index": 191,
		"time_elapsed": 382095,
		"internal_node_id": "0.0-3.0-1.148"
	},
	{
		"rt": 1341,
		"stimulus": "../audio/35-3-masc.mp3",
		"response": " ",
		"word": "para",
		"trial_type": "audio-keyboard-response",
		"trial_index": 192,
		"time_elapsed": 383791,
		"internal_node_id": "0.0-3.0-1.149"
	},
	{
		"rt": 829,
		"stimulus": "../audio/35-4-masc.mp3",
		"response": " ",
		"word": "a",
		"trial_type": "audio-keyboard-response",
		"trial_index": 193,
		"time_elapsed": 385039,
		"internal_node_id": "0.0-3.0-1.150"
	},
	{
		"rt": 1411,
		"stimulus": "../audio/35-5-masc.mp3",
		"response": " ",
		"word": "preparação",
		"trial_type": "audio-keyboard-response",
		"trial_index": 194,
		"time_elapsed": 386835,
		"internal_node_id": "0.0-3.0-1.151"
	},
	{
		"rt": 1440,
		"stimulus": "../audio/35-6-masc.mp3",
		"response": " ",
		"word": "do",
		"trial_type": "audio-keyboard-response",
		"trial_index": 195,
		"time_elapsed": 388611,
		"internal_node_id": "0.0-3.0-1.152"
	},
	{
		"rt": 1160,
		"stimulus": "../audio/35-7-masc.mp3",
		"response": " ",
		"word": "bolo",
		"trial_type": "audio-keyboard-response",
		"trial_index": 196,
		"time_elapsed": 390124,
		"internal_node_id": "0.0-3.0-1.153"
	},
	{
		"rt": 781,
		"stimulus": "../audio/35-8-masc.mp3",
		"response": " ",
		"word": "é",
		"trial_type": "audio-keyboard-response",
		"trial_index": 197,
		"time_elapsed": 391275,
		"internal_node_id": "0.0-3.0-1.154"
	},
	{
		"rt": 1411,
		"stimulus": "../audio/35-9-masc.mp3",
		"response": " ",
		"word": "leve.",
		"trial_type": "audio-keyboard-response",
		"trial_index": 198,
		"time_elapsed": 393073,
		"internal_node_id": "0.0-3.0-1.155"
	},
	{
		"rt": 2682,
		"stimulus": "<span style=\"font-size:25px; font-family: monospace\">A receita do bolo é pesada?</span>",
		"response": "n",
		"question": "A receita do bolo é pesada?",
		"answer": "null",
		"trial": "exp-sent",
		"trial_type": "html-keyboard-response",
		"trial_index": 199,
		"time_elapsed": 396021,
		"internal_node_id": "0.0-3.0-2.155-0.155",
		"accuracy": false
	},
	{
		"rt": null,
		"stimulus": "<span style= \"font-size:30px; font-family: monospace\">+</span>",
		"response": null,
		"trial_part": "fixation",
		"trial_type": "html-keyboard-response",
		"trial_index": 200,
		"time_elapsed": 397543,
		"internal_node_id": "0.0-3.0-0.156-0.156"
	},
	{
		"rt": 1080,
		"stimulus": "../audio/48-1-masc.mp3",
		"response": " ",
		"word": "Ela",
		"trial_type": "audio-keyboard-response",
		"trial_index": 201,
		"time_elapsed": 399024,
		"internal_node_id": "0.0-3.0-1.156"
	},
	{
		"rt": 981,
		"stimulus": "../audio/48-2-masc.mp3",
		"response": " ",
		"word": "come",
		"trial_type": "audio-keyboard-response",
		"trial_index": 202,
		"time_elapsed": 400354,
		"internal_node_id": "0.0-3.0-1.157"
	},
	{
		"rt": 792,
		"stimulus": "../audio/48-3-masc.mp3",
		"response": " ",
		"word": "feijão",
		"trial_type": "audio-keyboard-response",
		"trial_index": 203,
		"time_elapsed": 401473,
		"internal_node_id": "0.0-3.0-1.158"
	},
	{
		"rt": 749,
		"stimulus": "../audio/48-4-masc.mp3",
		"response": " ",
		"word": "com",
		"trial_type": "audio-keyboard-response",
		"trial_index": 204,
		"time_elapsed": 402531,
		"internal_node_id": "0.0-3.0-1.159"
	},
	{
		"rt": 920,
		"stimulus": "../audio/48-5-masc.mp3",
		"response": " ",
		"word": "arroz",
		"trial_type": "audio-keyboard-response",
		"trial_index": 205,
		"time_elapsed": 403839,
		"internal_node_id": "0.0-3.0-1.160"
	},
	{
		"rt": 659,
		"stimulus": "../audio/48-6-masc.mp3",
		"response": " ",
		"word": "todos",
		"trial_type": "audio-keyboard-response",
		"trial_index": 206,
		"time_elapsed": 404976,
		"internal_node_id": "0.0-3.0-1.161"
	},
	{
		"rt": 648,
		"stimulus": "../audio/48-7-masc.mp3",
		"response": " ",
		"word": "os",
		"trial_type": "audio-keyboard-response",
		"trial_index": 207,
		"time_elapsed": 405967,
		"internal_node_id": "0.0-3.0-1.162"
	},
	{
		"rt": 3381,
		"stimulus": "../audio/48-8-masc.mp3",
		"response": " ",
		"word": "dias.",
		"trial_type": "audio-keyboard-response",
		"trial_index": 208,
		"time_elapsed": 409711,
		"internal_node_id": "0.0-3.0-1.163"
	},
	{
		"rt": null,
		"stimulus": "<span style= \"font-size:30px; font-family: monospace\">+</span>",
		"response": null,
		"trial_part": "fixation",
		"trial_type": "html-keyboard-response",
		"trial_index": 209,
		"time_elapsed": 410973,
		"internal_node_id": "0.0-3.0-0.164-0.164"
	},
	{
		"rt": 1469,
		"stimulus": "../audio/47-1-fem.mp3",
		"response": " ",
		"word": "O",
		"trial_type": "audio-keyboard-response",
		"trial_index": 210,
		"time_elapsed": 412816,
		"internal_node_id": "0.0-3.0-1.164"
	},
	{
		"rt": 1032,
		"stimulus": "../audio/47-2-fem.mp3",
		"response": " ",
		"word": "tio",
		"trial_type": "audio-keyboard-response",
		"trial_index": 211,
		"time_elapsed": 414193,
		"internal_node_id": "0.0-3.0-1.165"
	},
	{
		"rt": 1291,
		"stimulus": "../audio/47-3-fem.mp3",
		"response": " ",
		"word": "recusou",
		"trial_type": "audio-keyboard-response",
		"trial_index": 212,
		"time_elapsed": 415981,
		"internal_node_id": "0.0-3.0-1.166"
	},
	{
		"rt": 891,
		"stimulus": "../audio/47-4-fem.mp3",
		"response": " ",
		"word": "a",
		"trial_type": "audio-keyboard-response",
		"trial_index": 213,
		"time_elapsed": 417216,
		"internal_node_id": "0.0-3.0-1.167"
	},
	{
		"rt": 4771,
		"stimulus": "../audio/47-5-fem.mp3",
		"response": " ",
		"word": "sobremesa",
		"trial_type": "audio-keyboard-response",
		"trial_index": 214,
		"time_elapsed": 422377,
		"internal_node_id": "0.0-3.0-1.168"
	},
	{
		"rt": 1000,
		"stimulus": "../audio/47-6-fem.mp3",
		"response": " ",
		"word": "no",
		"trial_type": "audio-keyboard-response",
		"trial_index": 215,
		"time_elapsed": 423752,
		"internal_node_id": "0.0-3.0-1.169"
	},
	{
		"rt": 1691,
		"stimulus": "../audio/47-7-fem.mp3",
		"response": " ",
		"word": "almoço.",
		"trial_type": "audio-keyboard-response",
		"trial_index": 216,
		"time_elapsed": 425826,
		"internal_node_id": "0.0-3.0-1.170"
	},
	{
		"rt": null,
		"stimulus": "<span style= \"font-size:30px; font-family: monospace\">+</span>",
		"response": null,
		"trial_part": "fixation",
		"trial_type": "html-keyboard-response",
		"trial_index": 217,
		"time_elapsed": 427090,
		"internal_node_id": "0.0-3.0-0.171-0.171"
	},
	{
		"rt": 709,
		"stimulus": "../audio/46-1-masc.mp3",
		"response": " ",
		"word": "Meu",
		"trial_type": "audio-keyboard-response",
		"trial_index": 218,
		"time_elapsed": 428217,
		"internal_node_id": "0.0-3.0-1.171"
	},
	{
		"rt": 800,
		"stimulus": "../audio/46-2-masc.mp3",
		"response": " ",
		"word": "primo",
		"trial_type": "audio-keyboard-response",
		"trial_index": 219,
		"time_elapsed": 429364,
		"internal_node_id": "0.0-3.0-1.172"
	},
	{
		"rt": 1000,
		"stimulus": "../audio/46-3-masc.mp3",
		"response": " ",
		"word": "estava",
		"trial_type": "audio-keyboard-response",
		"trial_index": 220,
		"time_elapsed": 430714,
		"internal_node_id": "0.0-3.0-1.173"
	},
	{
		"rt": 891,
		"stimulus": "../audio/46-4-masc.mp3",
		"response": " ",
		"word": "muito",
		"trial_type": "audio-keyboard-response",
		"trial_index": 221,
		"time_elapsed": 431986,
		"internal_node_id": "0.0-3.0-1.174"
	},
	{
		"rt": 1171,
		"stimulus": "../audio/46-5-masc.mp3",
		"response": " ",
		"word": "deprimido",
		"trial_type": "audio-keyboard-response",
		"trial_index": 222,
		"time_elapsed": 433542,
		"internal_node_id": "0.0-3.0-1.175"
	},
	{
		"rt": 709,
		"stimulus": "../audio/46-6-masc.mp3",
		"response": " ",
		"word": "no",
		"trial_type": "audio-keyboard-response",
		"trial_index": 223,
		"time_elapsed": 434602,
		"internal_node_id": "0.0-3.0-1.176"
	},
	{
		"rt": 1160,
		"stimulus": "../audio/46-7-masc.mp3",
		"response": " ",
		"word": "inverno.",
		"trial_type": "audio-keyboard-response",
		"trial_index": 224,
		"time_elapsed": 436189,
		"internal_node_id": "0.0-3.0-1.177"
	},
	{
		"rt": null,
		"stimulus": "<span style= \"font-size:30px; font-family: monospace\">+</span>",
		"response": null,
		"trial_part": "fixation",
		"trial_type": "html-keyboard-response",
		"trial_index": 225,
		"time_elapsed": 437460,
		"internal_node_id": "0.0-3.0-0.178-0.178"
	},
	{
		"rt": 779,
		"stimulus": "../audio/49-1-fem.mp3",
		"response": " ",
		"word": "Eu",
		"trial_type": "audio-keyboard-response",
		"trial_index": 226,
		"time_elapsed": 438618,
		"internal_node_id": "0.0-3.0-1.178"
	},
	{
		"rt": 709,
		"stimulus": "../audio/49-2-fem.mp3",
		"response": " ",
		"word": "quero",
		"trial_type": "audio-keyboard-response",
		"trial_index": 227,
		"time_elapsed": 439697,
		"internal_node_id": "0.0-3.0-1.179"
	},
	{
		"rt": 691,
		"stimulus": "../audio/49-3-fem.mp3",
		"response": " ",
		"word": "um",
		"trial_type": "audio-keyboard-response",
		"trial_index": 228,
		"time_elapsed": 440736,
		"internal_node_id": "0.0-3.0-1.180"
	},
	{
		"rt": 851,
		"stimulus": "../audio/49-4-fem.mp3",
		"response": " ",
		"word": "lanche",
		"trial_type": "audio-keyboard-response",
		"trial_index": 229,
		"time_elapsed": 441956,
		"internal_node_id": "0.0-3.0-1.181"
	},
	{
		"rt": 768,
		"stimulus": "../audio/49-5-fem.mp3",
		"response": " ",
		"word": "duplo",
		"trial_type": "audio-keyboard-response",
		"trial_index": 230,
		"time_elapsed": 443085,
		"internal_node_id": "0.0-3.0-1.182"
	},
	{
		"rt": 739,
		"stimulus": "../audio/49-6-fem.mp3",
		"response": " ",
		"word": "e",
		"trial_type": "audio-keyboard-response",
		"trial_index": 231,
		"time_elapsed": 444180,
		"internal_node_id": "0.0-3.0-1.183"
	},
	{
		"rt": 659,
		"stimulus": "../audio/49-7-fem.mp3",
		"response": " ",
		"word": "um",
		"trial_type": "audio-keyboard-response",
		"trial_index": 232,
		"time_elapsed": 445249,
		"internal_node_id": "0.0-3.0-1.184"
	},
	{
		"rt": 1931,
		"stimulus": "../audio/49-8-fem.mp3",
		"response": " ",
		"word": "suco.",
		"trial_type": "audio-keyboard-response",
		"trial_index": 233,
		"time_elapsed": 447549,
		"internal_node_id": "0.0-3.0-1.185"
	},
	{
		"rt": null,
		"stimulus": "<span style= \"font-size:30px; font-family: monospace\">+</span>",
		"response": null,
		"trial_part": "fixation",
		"trial_type": "html-keyboard-response",
		"trial_index": 234,
		"time_elapsed": 448813,
		"internal_node_id": "0.0-3.0-0.186-0.186"
	},
	{
		"rt": 720,
		"stimulus": "../audio/50-1-masc.mp3",
		"response": " ",
		"word": "O",
		"trial_type": "audio-keyboard-response",
		"trial_index": 235,
		"time_elapsed": 449934,
		"internal_node_id": "0.0-3.0-1.186"
	},
	{
		"rt": 1101,
		"stimulus": "../audio/50-2-masc.mp3",
		"response": " ",
		"word": "pássaro",
		"trial_type": "audio-keyboard-response",
		"trial_index": 236,
		"time_elapsed": 451350,
		"internal_node_id": "0.0-3.0-1.187"
	},
	{
		"rt": 1008,
		"stimulus": "../audio/50-3-masc.mp3",
		"response": " ",
		"word": "fugiu",
		"trial_type": "audio-keyboard-response",
		"trial_index": 237,
		"time_elapsed": 452682,
		"internal_node_id": "0.0-3.0-1.188"
	},
	{
		"rt": 800,
		"stimulus": "../audio/50-4-masc.mp3",
		"response": " ",
		"word": "da",
		"trial_type": "audio-keyboard-response",
		"trial_index": 238,
		"time_elapsed": 453827,
		"internal_node_id": "0.0-3.0-1.189"
	},
	{
		"rt": 1419,
		"stimulus": "../audio/50-5-masc.mp3",
		"response": " ",
		"word": "gaiola",
		"trial_type": "audio-keyboard-response",
		"trial_index": 239,
		"time_elapsed": 455607,
		"internal_node_id": "0.0-3.0-1.190"
	},
	{
		"rt": 891,
		"stimulus": "../audio/50-6-masc.mp3",
		"response": " ",
		"word": "pela",
		"trial_type": "audio-keyboard-response",
		"trial_index": 240,
		"time_elapsed": 456907,
		"internal_node_id": "0.0-3.0-1.191"
	},
	{
		"rt": 3541,
		"stimulus": "../audio/50-7-masc.mp3",
		"response": " ",
		"word": "portinhola.",
		"trial_type": "audio-keyboard-response",
		"trial_index": 241,
		"time_elapsed": 460831,
		"internal_node_id": "0.0-3.0-1.192"
	},
	{
		"rt": 3410,
		"stimulus": "<span style=\"font-size:25px; font-family: monospace\">O pássaro fugiu da gaiola?</span>",
		"response": "s",
		"question": "O pássaro fugiu da gaiola?",
		"answer": "null",
		"trial": "exp-sent",
		"trial_type": "html-keyboard-response",
		"trial_index": 242,
		"time_elapsed": 464503,
		"internal_node_id": "0.0-3.0-2.192-0.192",
		"accuracy": false
	},
	{
		"rt": null,
		"stimulus": "<span style= \"font-size:30px; font-family: monospace\">+</span>",
		"response": null,
		"trial_part": "fixation",
		"trial_type": "html-keyboard-response",
		"trial_index": 243,
		"time_elapsed": 466022,
		"internal_node_id": "0.0-3.0-0.193-0.193"
	},
	{
		"rt": 4248,
		"stimulus": "../audio/72-1-fem.mp3",
		"response": " ",
		"word": "A",
		"trial_type": "audio-keyboard-response",
		"trial_index": 244,
		"time_elapsed": 470646,
		"internal_node_id": "0.0-3.0-1.193"
	},
	{
		"rt": 1440,
		"stimulus": "../audio/72-2-fem.mp3",
		"response": " ",
		"word": "vencedora",
		"trial_type": "audio-keyboard-response",
		"trial_index": 245,
		"time_elapsed": 472512,
		"internal_node_id": "0.0-3.0-1.194"
	},
	{
		"rt": 1011,
		"stimulus": "../audio/72-3-fem.mp3",
		"response": " ",
		"word": "recebeu",
		"trial_type": "audio-keyboard-response",
		"trial_index": 246,
		"time_elapsed": 473838,
		"internal_node_id": "0.0-3.0-1.195"
	},
	{
		"rt": 819,
		"stimulus": "../audio/72-4-fem.mp3",
		"response": " ",
		"word": "um",
		"trial_type": "audio-keyboard-response",
		"trial_index": 247,
		"time_elapsed": 474964,
		"internal_node_id": "0.0-3.0-1.196"
	},
	{
		"rt": 712,
		"stimulus": "../audio/72-5-fem.mp3",
		"response": " ",
		"word": "prêmio",
		"trial_type": "audio-keyboard-response",
		"trial_index": 248,
		"time_elapsed": 476080,
		"internal_node_id": "0.0-3.0-1.197"
	},
	{
		"rt": 741,
		"stimulus": "../audio/72-6-fem.mp3",
		"response": " ",
		"word": "em",
		"trial_type": "audio-keyboard-response",
		"trial_index": 249,
		"time_elapsed": 477159,
		"internal_node_id": "0.0-3.0-1.198"
	},
	{
		"rt": 1341,
		"stimulus": "../audio/72-7-fem.mp3",
		"response": " ",
		"word": "dinheiro.",
		"trial_type": "audio-keyboard-response",
		"trial_index": 250,
		"time_elapsed": 478909,
		"internal_node_id": "0.0-3.0-1.199"
	},
	{
		"rt": null,
		"stimulus": "<span style= \"font-size:30px; font-family: monospace\">+</span>",
		"response": null,
		"trial_part": "fixation",
		"trial_type": "html-keyboard-response",
		"trial_index": 251,
		"time_elapsed": 480174,
		"internal_node_id": "0.0-3.0-0.200-0.200"
	},
	{
		"rt": 771,
		"stimulus": "../audio/73-1-masc.mp3",
		"response": " ",
		"word": "O",
		"trial_type": "audio-keyboard-response",
		"trial_index": 252,
		"time_elapsed": 481333,
		"internal_node_id": "0.0-3.0-1.200"
	},
	{
		"rt": 811,
		"stimulus": "../audio/73-2-masc.mp3",
		"response": " ",
		"word": "cliente",
		"trial_type": "audio-keyboard-response",
		"trial_index": 253,
		"time_elapsed": 482540,
		"internal_node_id": "0.0-3.0-1.201"
	},
	{
		"rt": 829,
		"stimulus": "../audio/73-3-masc.mp3",
		"response": " ",
		"word": "era",
		"trial_type": "audio-keyboard-response",
		"trial_index": 254,
		"time_elapsed": 483730,
		"internal_node_id": "0.0-3.0-1.202"
	},
	{
		"rt": 789,
		"stimulus": "../audio/73-4-masc.mp3",
		"response": " ",
		"word": "um",
		"trial_type": "audio-keyboard-response",
		"trial_index": 255,
		"time_elapsed": 484871,
		"internal_node_id": "0.0-3.0-1.203"
	},
	{
		"rt": 600,
		"stimulus": "../audio/73-5-masc.mp3",
		"response": " ",
		"word": "homem",
		"trial_type": "audio-keyboard-response",
		"trial_index": 256,
		"time_elapsed": 485893,
		"internal_node_id": "0.0-3.0-1.204"
	},
	{
		"rt": 651,
		"stimulus": "../audio/73-6-masc.mp3",
		"response": " ",
		"word": "muito",
		"trial_type": "audio-keyboard-response",
		"trial_index": 257,
		"time_elapsed": 486907,
		"internal_node_id": "0.0-3.0-1.205"
	},
	{
		"rt": 1291,
		"stimulus": "../audio/73-7-masc.mp3",
		"response": " ",
		"word": "educado.",
		"trial_type": "audio-keyboard-response",
		"trial_index": 258,
		"time_elapsed": 488623,
		"internal_node_id": "0.0-3.0-1.206"
	},
	{
		"rt": null,
		"stimulus": "<span style= \"font-size:30px; font-family: monospace\">+</span>",
		"response": null,
		"trial_part": "fixation",
		"trial_type": "html-keyboard-response",
		"trial_index": 259,
		"time_elapsed": 489899,
		"internal_node_id": "0.0-3.0-0.207-0.207"
	},
	{
		"rt": 1080,
		"stimulus": "../audio/74-1-masc.mp3",
		"response": " ",
		"word": "Este",
		"trial_type": "audio-keyboard-response",
		"trial_index": 260,
		"time_elapsed": 491388,
		"internal_node_id": "0.0-3.0-1.207"
	},
	{
		"rt": 1069,
		"stimulus": "../audio/74-2-masc.mp3",
		"response": " ",
		"word": "emprego",
		"trial_type": "audio-keyboard-response",
		"trial_index": 261,
		"time_elapsed": 492847,
		"internal_node_id": "0.0-3.0-1.208"
	},
	{
		"rt": 880,
		"stimulus": "../audio/74-3-masc.mp3",
		"response": " ",
		"word": "é",
		"trial_type": "audio-keyboard-response",
		"trial_index": 262,
		"time_elapsed": 494066,
		"internal_node_id": "0.0-3.0-1.209"
	},
	{
		"rt": 779,
		"stimulus": "../audio/74-4-masc.mp3",
		"response": " ",
		"word": "muito",
		"trial_type": "audio-keyboard-response",
		"trial_index": 263,
		"time_elapsed": 495218,
		"internal_node_id": "0.0-3.0-1.210"
	},
	{
		"rt": 1429,
		"stimulus": "../audio/74-5-masc.mp3",
		"response": " ",
		"word": "cansativo",
		"trial_type": "audio-keyboard-response",
		"trial_index": 264,
		"time_elapsed": 497013,
		"internal_node_id": "0.0-3.0-1.211"
	},
	{
		"rt": 869,
		"stimulus": "../audio/74-6-masc.mp3",
		"response": " ",
		"word": "a",
		"trial_type": "audio-keyboard-response",
		"trial_index": 265,
		"time_elapsed": 498249,
		"internal_node_id": "0.0-3.0-1.212"
	},
	{
		"rt": 1219,
		"stimulus": "../audio/74-7-masc.mp3",
		"response": " ",
		"word": "longo",
		"trial_type": "audio-keyboard-response",
		"trial_index": 266,
		"time_elapsed": 499851,
		"internal_node_id": "0.0-3.0-1.213"
	},
	{
		"rt": 2019,
		"stimulus": "../audio/74-8-masc.mp3",
		"response": " ",
		"word": "prazo.",
		"trial_type": "audio-keyboard-response",
		"trial_index": 267,
		"time_elapsed": 502260,
		"internal_node_id": "0.0-3.0-1.214"
	},
	{
		"rt": null,
		"stimulus": "<span style= \"font-size:30px; font-family: monospace\">+</span>",
		"response": null,
		"trial_part": "fixation",
		"trial_type": "html-keyboard-response",
		"trial_index": 268,
		"time_elapsed": 503523,
		"internal_node_id": "0.0-3.0-0.215-0.215"
	},
	{
		"rt": 981,
		"stimulus": "../audio/71-1-fem.mp3",
		"response": " ",
		"word": "Minhas",
		"trial_type": "audio-keyboard-response",
		"trial_index": 269,
		"time_elapsed": 504907,
		"internal_node_id": "0.0-3.0-1.215"
	},
	{
		"rt": 992,
		"stimulus": "../audio/71-2-fem.mp3",
		"response": " ",
		"word": "comidas",
		"trial_type": "audio-keyboard-response",
		"trial_index": 270,
		"time_elapsed": 506356,
		"internal_node_id": "0.0-3.0-1.216"
	},
	{
		"rt": 1069,
		"stimulus": "../audio/71-3-fem.mp3",
		"response": " ",
		"word": "favoritas",
		"trial_type": "audio-keyboard-response",
		"trial_index": 271,
		"time_elapsed": 507792,
		"internal_node_id": "0.0-3.0-1.217"
	},
	{
		"rt": 731,
		"stimulus": "../audio/71-4-fem.mp3",
		"response": " ",
		"word": "são",
		"trial_type": "audio-keyboard-response",
		"trial_index": 272,
		"time_elapsed": 508878,
		"internal_node_id": "0.0-3.0-1.218"
	},
	{
		"rt": 1139,
		"stimulus": "../audio/71-5-fem.mp3",
		"response": " ",
		"word": "morango",
		"trial_type": "audio-keyboard-response",
		"trial_index": 273,
		"time_elapsed": 510420,
		"internal_node_id": "0.0-3.0-1.219"
	},
	{
		"rt": 1120,
		"stimulus": "../audio/71-6-fem.mp3",
		"response": " ",
		"word": "e",
		"trial_type": "audio-keyboard-response",
		"trial_index": 274,
		"time_elapsed": 511922,
		"internal_node_id": "0.0-3.0-1.220"
	},
	{
		"rt": 2320,
		"stimulus": "../audio/71-7-fem.mp3",
		"response": " ",
		"word": "uva.",
		"trial_type": "audio-keyboard-response",
		"trial_index": 275,
		"time_elapsed": 514586,
		"internal_node_id": "0.0-3.0-1.221"
	},
	{
		"rt": null,
		"stimulus": "<span style= \"font-size:30px; font-family: monospace\">+</span>",
		"response": null,
		"trial_part": "fixation",
		"trial_type": "html-keyboard-response",
		"trial_index": 276,
		"time_elapsed": 515860,
		"internal_node_id": "0.0-3.0-0.222-0.222"
	},
	{
		"rt": 1392,
		"stimulus": "../audio/75-1-fem.mp3",
		"response": " ",
		"word": "Só",
		"trial_type": "audio-keyboard-response",
		"trial_index": 277,
		"time_elapsed": 517678,
		"internal_node_id": "0.0-3.0-1.222"
	},
	{
		"rt": 1240,
		"stimulus": "../audio/75-2-fem.mp3",
		"response": " ",
		"word": "existe",
		"trial_type": "audio-keyboard-response",
		"trial_index": 278,
		"time_elapsed": 519306,
		"internal_node_id": "0.0-3.0-1.223"
	},
	{
		"rt": 880,
		"stimulus": "../audio/75-3-fem.mp3",
		"response": " ",
		"word": "uma",
		"trial_type": "audio-keyboard-response",
		"trial_index": 279,
		"time_elapsed": 520527,
		"internal_node_id": "0.0-3.0-1.224"
	},
	{
		"rt": 1000,
		"stimulus": "../audio/75-4-fem.mp3",
		"response": " ",
		"word": "pessoa",
		"trial_type": "audio-keyboard-response",
		"trial_index": 280,
		"time_elapsed": 521931,
		"internal_node_id": "0.0-3.0-1.225"
	},
	{
		"rt": 1269,
		"stimulus": "../audio/75-5-fem.mp3",
		"response": " ",
		"word": "canhota",
		"trial_type": "audio-keyboard-response",
		"trial_index": 281,
		"time_elapsed": 523610,
		"internal_node_id": "0.0-3.0-1.226"
	},
	{
		"rt": 1280,
		"stimulus": "../audio/75-6-fem.mp3",
		"response": " ",
		"word": "nesta",
		"trial_type": "audio-keyboard-response",
		"trial_index": 282,
		"time_elapsed": 525249,
		"internal_node_id": "0.0-3.0-1.227"
	},
	{
		"rt": 1771,
		"stimulus": "../audio/75-7-fem.mp3",
		"response": " ",
		"word": "cidade.",
		"trial_type": "audio-keyboard-response",
		"trial_index": 283,
		"time_elapsed": 527469,
		"internal_node_id": "0.0-3.0-1.228"
	},
	{
		"rt": 3390,
		"stimulus": "<span style=\"font-size:25px; font-family: monospace\">Só existe uma pessoa canhota na cidade?</span>",
		"response": "s",
		"question": "Só existe uma pessoa canhota na cidade?",
		"answer": "null",
		"trial": "exp-sent",
		"trial_type": "html-keyboard-response",
		"trial_index": 284,
		"time_elapsed": 531121,
		"internal_node_id": "0.0-3.0-2.228-0.228",
		"accuracy": false
	},
	{
		"rt": null,
		"stimulus": "<span style= \"font-size:30px; font-family: monospace\">+</span>",
		"response": null,
		"trial_part": "fixation",
		"trial_type": "html-keyboard-response",
		"trial_index": 285,
		"time_elapsed": 532631,
		"internal_node_id": "0.0-3.0-0.229-0.229"
	},
	{
		"rt": 691,
		"stimulus": "../audio/37-1-fem.mp3",
		"response": " ",
		"word": "Eu",
		"trial_type": "audio-keyboard-response",
		"trial_index": 286,
		"time_elapsed": 533714,
		"internal_node_id": "0.0-3.0-1.229"
	},
	{
		"rt": 811,
		"stimulus": "../audio/37-2-fem.mp3",
		"response": " ",
		"word": "adoro",
		"trial_type": "audio-keyboard-response",
		"trial_index": 287,
		"time_elapsed": 534877,
		"internal_node_id": "0.0-3.0-1.230"
	},
	{
		"rt": 709,
		"stimulus": "../audio/37-3-fem.mp3",
		"response": " ",
		"word": "suco",
		"trial_type": "audio-keyboard-response",
		"trial_index": 288,
		"time_elapsed": 535990,
		"internal_node_id": "0.0-3.0-1.231"
	},
	{
		"rt": 491,
		"stimulus": "../audio/37-4-fem.mp3",
		"response": " ",
		"word": "de",
		"trial_type": "audio-keyboard-response",
		"trial_index": 289,
		"time_elapsed": 536819,
		"internal_node_id": "0.0-3.0-1.232"
	},
	{
		"rt": 1248,
		"stimulus": "../audio/37-5-fem.mp3",
		"response": " ",
		"word": "manga",
		"trial_type": "audio-keyboard-response",
		"trial_index": 290,
		"time_elapsed": 538446,
		"internal_node_id": "0.0-3.0-1.233"
	},
	{
		"rt": 800,
		"stimulus": "../audio/37-6-fem.mp3",
		"response": " ",
		"word": "com",
		"trial_type": "audio-keyboard-response",
		"trial_index": 291,
		"time_elapsed": 539625,
		"internal_node_id": "0.0-3.0-1.234"
	},
	{
		"rt": 1451,
		"stimulus": "../audio/37-7-fem.mp3",
		"response": " ",
		"word": "hortelã.",
		"trial_type": "audio-keyboard-response",
		"trial_index": 292,
		"time_elapsed": 541462,
		"internal_node_id": "0.0-3.0-1.235"
	},
	{
		"rt": null,
		"stimulus": "<span style= \"font-size:30px; font-family: monospace\">+</span>",
		"response": null,
		"trial_part": "fixation",
		"trial_type": "html-keyboard-response",
		"trial_index": 293,
		"time_elapsed": 542735,
		"internal_node_id": "0.0-3.0-0.236-0.236"
	},
	{
		"rt": 699,
		"stimulus": "../audio/38-1-fem.mp3",
		"response": " ",
		"word": "A",
		"trial_type": "audio-keyboard-response",
		"trial_index": 294,
		"time_elapsed": 544050,
		"internal_node_id": "0.0-3.0-1.236"
	},
	{
		"rt": 1211,
		"stimulus": "../audio/38-2-fem.mp3",
		"response": " ",
		"word": "empresa",
		"trial_type": "audio-keyboard-response",
		"trial_index": 295,
		"time_elapsed": 546303,
		"internal_node_id": "0.0-3.0-1.237"
	},
	{
		"rt": 989,
		"stimulus": "../audio/38-3-fem.mp3",
		"response": " ",
		"word": "criou",
		"trial_type": "audio-keyboard-response",
		"trial_index": 296,
		"time_elapsed": 548142,
		"internal_node_id": "0.0-3.0-1.238"
	},
	{
		"rt": 720,
		"stimulus": "../audio/38-4-fem.mp3",
		"response": " ",
		"word": "a",
		"trial_type": "audio-keyboard-response",
		"trial_index": 297,
		"time_elapsed": 549401,
		"internal_node_id": "0.0-3.0-1.239"
	},
	{
		"rt": 1299,
		"stimulus": "../audio/38-5-fem.mp3",
		"response": " ",
		"word": "patente",
		"trial_type": "audio-keyboard-response",
		"trial_index": 298,
		"time_elapsed": 551326,
		"internal_node_id": "0.0-3.0-1.240"
	},
	{
		"rt": 952,
		"stimulus": "../audio/38-6-fem.mp3",
		"response": " ",
		"word": "da",
		"trial_type": "audio-keyboard-response",
		"trial_index": 299,
		"time_elapsed": 552715,
		"internal_node_id": "0.0-3.0-1.241"
	},
	{
		"rt": 3069,
		"stimulus": "../audio/38-7-fem.mp3",
		"response": " ",
		"word": "frigideira.",
		"trial_type": "audio-keyboard-response",
		"trial_index": 300,
		"time_elapsed": 556342,
		"internal_node_id": "0.0-3.0-1.242"
	},
	{
		"rt": null,
		"stimulus": "<span style= \"font-size:30px; font-family: monospace\">+</span>",
		"response": null,
		"trial_part": "fixation",
		"trial_type": "html-keyboard-response",
		"trial_index": 301,
		"time_elapsed": 557609,
		"internal_node_id": "0.0-3.0-0.243-0.243"
	},
	{
		"rt": 861,
		"stimulus": "../audio/36-1-masc.mp3",
		"response": " ",
		"word": "Meu",
		"trial_type": "audio-keyboard-response",
		"trial_index": 302,
		"time_elapsed": 559237,
		"internal_node_id": "0.0-3.0-1.243"
	},
	{
		"rt": 1240,
		"stimulus": "../audio/36-2-masc.mp3",
		"response": " ",
		"word": "tio",
		"trial_type": "audio-keyboard-response",
		"trial_index": 303,
		"time_elapsed": 560941,
		"internal_node_id": "0.0-3.0-1.244"
	},
	{
		"rt": 869,
		"stimulus": "../audio/36-3-masc.mp3",
		"response": " ",
		"word": "comprou",
		"trial_type": "audio-keyboard-response",
		"trial_index": 304,
		"time_elapsed": 562446,
		"internal_node_id": "0.0-3.0-1.245"
	},
	{
		"rt": 808,
		"stimulus": "../audio/36-4-masc.mp3",
		"response": " ",
		"word": "um",
		"trial_type": "audio-keyboard-response",
		"trial_index": 305,
		"time_elapsed": 563932,
		"internal_node_id": "0.0-3.0-1.246"
	},
	{
		"rt": 1051,
		"stimulus": "../audio/36-5-masc.mp3",
		"response": " ",
		"word": "filtro",
		"trial_type": "audio-keyboard-response",
		"trial_index": 306,
		"time_elapsed": 565598,
		"internal_node_id": "0.0-3.0-1.247"
	},
	{
		"rt": 781,
		"stimulus": "../audio/36-6-masc.mp3",
		"response": " ",
		"word": "de",
		"trial_type": "audio-keyboard-response",
		"trial_index": 307,
		"time_elapsed": 566951,
		"internal_node_id": "0.0-3.0-1.248"
	},
	{
		"rt": 1029,
		"stimulus": "../audio/36-7-masc.mp3",
		"response": " ",
		"word": "água",
		"trial_type": "audio-keyboard-response",
		"trial_index": 308,
		"time_elapsed": 568528,
		"internal_node_id": "0.0-3.0-1.249"
	},
	{
		"rt": 1141,
		"stimulus": "../audio/36-8-masc.mp3",
		"response": " ",
		"word": "hoje",
		"trial_type": "audio-keyboard-response",
		"trial_index": 309,
		"time_elapsed": 570278,
		"internal_node_id": "0.0-3.0-1.250"
	},
	{
		"rt": 2168,
		"stimulus": "../audio/36-9-masc.mp3",
		"response": " ",
		"word": "cedo.",
		"trial_type": "audio-keyboard-response",
		"trial_index": 310,
		"time_elapsed": 573093,
		"internal_node_id": "0.0-3.0-1.251"
	},
	{
		"rt": null,
		"stimulus": "<span style= \"font-size:30px; font-family: monospace\">+</span>",
		"response": null,
		"trial_part": "fixation",
		"trial_type": "html-keyboard-response",
		"trial_index": 311,
		"time_elapsed": 574360,
		"internal_node_id": "0.0-3.0-0.252-0.252"
	},
	{
		"rt": 768,
		"stimulus": "../audio/39-1-fem.mp3",
		"response": " ",
		"word": "O",
		"trial_type": "audio-keyboard-response",
		"trial_index": 312,
		"time_elapsed": 576012,
		"internal_node_id": "0.0-3.0-1.252"
	},
	{
		"rt": 1251,
		"stimulus": "../audio/39-2-fem.mp3",
		"response": " ",
		"word": "conselho",
		"trial_type": "audio-keyboard-response",
		"trial_index": 313,
		"time_elapsed": 577872,
		"internal_node_id": "0.0-3.0-1.253"
	},
	{
		"rt": 851,
		"stimulus": "../audio/39-3-fem.mp3",
		"response": " ",
		"word": "foi",
		"trial_type": "audio-keyboard-response",
		"trial_index": 314,
		"time_elapsed": 579220,
		"internal_node_id": "0.0-3.0-1.254"
	},
	{
		"rt": 909,
		"stimulus": "../audio/39-4-fem.mp3",
		"response": " ",
		"word": "muito",
		"trial_type": "audio-keyboard-response",
		"trial_index": 315,
		"time_elapsed": 580594,
		"internal_node_id": "0.0-3.0-1.255"
	},
	{
		"rt": 779,
		"stimulus": "../audio/39-5-fem.mp3",
		"response": " ",
		"word": "útil",
		"trial_type": "audio-keyboard-response",
		"trial_index": 316,
		"time_elapsed": 581807,
		"internal_node_id": "0.0-3.0-1.256"
	},
	{
		"rt": 811,
		"stimulus": "../audio/39-6-fem.mp3",
		"response": " ",
		"word": "para",
		"trial_type": "audio-keyboard-response",
		"trial_index": 317,
		"time_elapsed": 583071,
		"internal_node_id": "0.0-3.0-1.257"
	},
	{
		"rt": 720,
		"stimulus": "../audio/39-7-fem.mp3",
		"response": " ",
		"word": "minha",
		"trial_type": "audio-keyboard-response",
		"trial_index": 318,
		"time_elapsed": 584232,
		"internal_node_id": "0.0-3.0-1.258"
	},
	{
		"rt": 901,
		"stimulus": "../audio/39-8-fem.mp3",
		"response": " ",
		"word": "tia.",
		"trial_type": "audio-keyboard-response",
		"trial_index": 319,
		"time_elapsed": 586068,
		"internal_node_id": "0.0-3.0-1.259"
	},
	{
		"rt": null,
		"stimulus": "<span style= \"font-size:30px; font-family: monospace\">+</span>",
		"response": null,
		"trial_part": "fixation",
		"trial_type": "html-keyboard-response",
		"trial_index": 320,
		"time_elapsed": 587346,
		"internal_node_id": "0.0-3.0-0.260-0.260"
	},
	{
		"rt": 560,
		"stimulus": "../audio/40-1-fem.mp3",
		"response": " ",
		"word": "O",
		"trial_type": "audio-keyboard-response",
		"trial_index": 321,
		"time_elapsed": 588333,
		"internal_node_id": "0.0-3.0-1.260"
	},
	{
		"rt": 840,
		"stimulus": "../audio/40-2-fem.mp3",
		"response": " ",
		"word": "jogo",
		"trial_type": "audio-keyboard-response",
		"trial_index": 322,
		"time_elapsed": 589627,
		"internal_node_id": "0.0-3.0-1.261"
	},
	{
		"rt": 731,
		"stimulus": "../audio/40-3-fem.mp3",
		"response": " ",
		"word": "falava",
		"trial_type": "audio-keyboard-response",
		"trial_index": 323,
		"time_elapsed": 590877,
		"internal_node_id": "0.0-3.0-1.262"
	},
	{
		"rt": 699,
		"stimulus": "../audio/40-4-fem.mp3",
		"response": " ",
		"word": "de",
		"trial_type": "audio-keyboard-response",
		"trial_index": 324,
		"time_elapsed": 592055,
		"internal_node_id": "0.0-3.0-1.263"
	},
	{
		"rt": 979,
		"stimulus": "../audio/40-5-fem.mp3",
		"response": " ",
		"word": "fantasia",
		"trial_type": "audio-keyboard-response",
		"trial_index": 325,
		"time_elapsed": 593686,
		"internal_node_id": "0.0-3.0-1.264"
	},
	{
		"rt": 680,
		"stimulus": "../audio/40-6-fem.mp3",
		"response": " ",
		"word": "e",
		"trial_type": "audio-keyboard-response",
		"trial_index": 326,
		"time_elapsed": 594823,
		"internal_node_id": "0.0-3.0-1.265"
	},
	{
		"rt": 741,
		"stimulus": "../audio/40-7-fem.mp3",
		"response": " ",
		"word": "de",
		"trial_type": "audio-keyboard-response",
		"trial_index": 327,
		"time_elapsed": 596230,
		"internal_node_id": "0.0-3.0-1.266"
	},
	{
		"rt": 941,
		"stimulus": "../audio/40-8-fem.mp3",
		"response": " ",
		"word": "aventura.",
		"trial_type": "audio-keyboard-response",
		"trial_index": 328,
		"time_elapsed": 597873,
		"internal_node_id": "0.0-3.0-1.267"
	},
	{
		"rt": 4339,
		"stimulus": "<span style=\"font-size:25px; font-family: monospace\">O jogo tinha fantasia e aventura?</span>",
		"response": "n",
		"question": "O jogo tinha fantasia e aventura?",
		"answer": "null",
		"trial": "exp-sent",
		"trial_type": "html-keyboard-response",
		"trial_index": 329,
		"time_elapsed": 602469,
		"internal_node_id": "0.0-3.0-2.267-0.267",
		"accuracy": false
	},
	{
		"rt": null,
		"stimulus": "<span style= \"font-size:30px; font-family: monospace\">+</span>",
		"response": null,
		"trial_part": "fixation",
		"trial_type": "html-keyboard-response",
		"trial_index": 330,
		"time_elapsed": 604002,
		"internal_node_id": "0.0-3.0-0.268-0.268"
	},
	{
		"rt": 2632,
		"stimulus": "../audio/06-1-fem.mp3",
		"response": " ",
		"word": "Ouvimos",
		"trial_type": "audio-keyboard-response",
		"trial_index": 331,
		"time_elapsed": 607518,
		"internal_node_id": "0.0-3.0-1.268"
	},
	{
		"rt": 859,
		"stimulus": "../audio/06-2-fem.mp3",
		"response": " ",
		"word": "a",
		"trial_type": "audio-keyboard-response",
		"trial_index": 332,
		"time_elapsed": 609169,
		"internal_node_id": "0.0-3.0-1.269"
	},
	{
		"rt": 899,
		"stimulus": "../audio/06-3-fem.mp3",
		"response": " ",
		"word": "fala",
		"trial_type": "audio-keyboard-response",
		"trial_index": 333,
		"time_elapsed": 610502,
		"internal_node_id": "0.0-3.0-1.270"
	},
	{
		"rt": 840,
		"stimulus": "../audio/06-4-fem.mp3",
		"response": " ",
		"word": "do",
		"trial_type": "audio-keyboard-response",
		"trial_index": 334,
		"time_elapsed": 611849,
		"internal_node_id": "0.0-3.0-1.271"
	},
	{
		"rt": 1000,
		"stimulus": "../audio/06-5-fem.mp3",
		"response": " ",
		"word": "profeta",
		"trial_type": "audio-keyboard-response",
		"trial_index": 335,
		"time_elapsed": 613462,
		"internal_node_id": "0.0-3.0-1.272"
	},
	{
		"rt": 920,
		"stimulus": "../audio/06-6-fem.mp3",
		"response": " ",
		"word": "no",
		"trial_type": "audio-keyboard-response",
		"trial_index": 336,
		"time_elapsed": 614795,
		"internal_node_id": "0.0-3.0-1.273"
	},
	{
		"rt": 1160,
		"stimulus": "../audio/06-7-fem.mp3",
		"response": " ",
		"word": "púlpito",
		"trial_type": "audio-keyboard-response",
		"trial_index": 337,
		"time_elapsed": 616592,
		"internal_node_id": "0.0-3.0-1.274"
	},
	{
		"rt": 880,
		"stimulus": "../audio/06-8-fem.mp3",
		"response": " ",
		"word": "da",
		"trial_type": "audio-keyboard-response",
		"trial_index": 338,
		"time_elapsed": 617908,
		"internal_node_id": "0.0-3.0-1.275"
	},
	{
		"rt": 1440,
		"stimulus": "../audio/06-9-fem.mp3",
		"response": " ",
		"word": "igreja.",
		"trial_type": "audio-keyboard-response",
		"trial_index": 339,
		"time_elapsed": 619981,
		"internal_node_id": "0.0-3.0-1.276"
	},
	{
		"rt": null,
		"stimulus": "<span style= \"font-size:30px; font-family: monospace\">+</span>",
		"response": null,
		"trial_part": "fixation",
		"trial_type": "html-keyboard-response",
		"trial_index": 340,
		"time_elapsed": 621243,
		"internal_node_id": "0.0-3.0-0.277-0.277"
	},
	{
		"rt": 171,
		"stimulus": "../audio/09-1-fem.mp3",
		"response": " ",
		"word": "O",
		"trial_type": "audio-keyboard-response",
		"trial_index": 341,
		"time_elapsed": 622181,
		"internal_node_id": "0.0-3.0-1.277"
	},
	{
		"rt": 1301,
		"stimulus": "../audio/09-2-fem.mp3",
		"response": " ",
		"word": "rapaz",
		"trial_type": "audio-keyboard-response",
		"trial_index": 342,
		"time_elapsed": 624074,
		"internal_node_id": "0.0-3.0-1.278"
	},
	{
		"rt": 1171,
		"stimulus": "../audio/09-3-fem.mp3",
		"response": " ",
		"word": "limpou",
		"trial_type": "audio-keyboard-response",
		"trial_index": 343,
		"time_elapsed": 625741,
		"internal_node_id": "0.0-3.0-1.279"
	},
	{
		"rt": 840,
		"stimulus": "../audio/09-4-fem.mp3",
		"response": " ",
		"word": "o",
		"trial_type": "audio-keyboard-response",
		"trial_index": 344,
		"time_elapsed": 627024,
		"internal_node_id": "0.0-3.0-1.280"
	},
	{
		"rt": 1192,
		"stimulus": "../audio/09-5-fem.mp3",
		"response": " ",
		"word": "terreno",
		"trial_type": "audio-keyboard-response",
		"trial_index": 345,
		"time_elapsed": 628720,
		"internal_node_id": "0.0-3.0-1.281"
	},
	{
		"rt": 789,
		"stimulus": "../audio/09-6-fem.mp3",
		"response": " ",
		"word": "com",
		"trial_type": "audio-keyboard-response",
		"trial_index": 346,
		"time_elapsed": 630033,
		"internal_node_id": "0.0-3.0-1.282"
	},
	{
		"rt": 949,
		"stimulus": "../audio/09-7-fem.mp3",
		"response": " ",
		"word": "uma",
		"trial_type": "audio-keyboard-response",
		"trial_index": 347,
		"time_elapsed": 631473,
		"internal_node_id": "0.0-3.0-1.283"
	},
	{
		"rt": 1000,
		"stimulus": "../audio/09-8-fem.mp3",
		"response": " ",
		"word": "pá.",
		"trial_type": "audio-keyboard-response",
		"trial_index": 348,
		"time_elapsed": 632920,
		"internal_node_id": "0.0-3.0-1.284"
	},
	{
		"rt": null,
		"stimulus": "<span style= \"font-size:30px; font-family: monospace\">+</span>",
		"response": null,
		"trial_part": "fixation",
		"trial_type": "html-keyboard-response",
		"trial_index": 349,
		"time_elapsed": 634190,
		"internal_node_id": "0.0-3.0-0.285-0.285"
	},
	{
		"rt": 909,
		"stimulus": "../audio/08-1-masc.mp3",
		"response": " ",
		"word": "A",
		"trial_type": "audio-keyboard-response",
		"trial_index": 350,
		"time_elapsed": 635738,
		"internal_node_id": "0.0-3.0-1.285"
	},
	{
		"rt": 1200,
		"stimulus": "../audio/08-2-masc.mp3",
		"response": " ",
		"word": "receita",
		"trial_type": "audio-keyboard-response",
		"trial_index": 351,
		"time_elapsed": 637466,
		"internal_node_id": "0.0-3.0-1.286"
	},
	{
		"rt": 941,
		"stimulus": "../audio/08-3-masc.mp3",
		"response": " ",
		"word": "pede",
		"trial_type": "audio-keyboard-response",
		"trial_index": 352,
		"time_elapsed": 638998,
		"internal_node_id": "0.0-3.0-1.287"
	},
	{
		"rt": 669,
		"stimulus": "../audio/08-4-masc.mp3",
		"response": " ",
		"word": "um",
		"trial_type": "audio-keyboard-response",
		"trial_index": 353,
		"time_elapsed": 640289,
		"internal_node_id": "0.0-3.0-1.288"
	},
	{
		"rt": 1171,
		"stimulus": "../audio/08-5-masc.mp3",
		"response": " ",
		"word": "litro",
		"trial_type": "audio-keyboard-response",
		"trial_index": 354,
		"time_elapsed": 642022,
		"internal_node_id": "0.0-3.0-1.289"
	},
	{
		"rt": 680,
		"stimulus": "../audio/08-6-masc.mp3",
		"response": " ",
		"word": "de",
		"trial_type": "audio-keyboard-response",
		"trial_index": 355,
		"time_elapsed": 643155,
		"internal_node_id": "0.0-3.0-1.290"
	},
	{
		"rt": 989,
		"stimulus": "../audio/08-7-masc.mp3",
		"response": " ",
		"word": "leite",
		"trial_type": "audio-keyboard-response",
		"trial_index": 356,
		"time_elapsed": 644809,
		"internal_node_id": "0.0-3.0-1.291"
	},
	{
		"rt": 1749,
		"stimulus": "../audio/08-8-masc.mp3",
		"response": " ",
		"word": "integral.",
		"trial_type": "audio-keyboard-response",
		"trial_index": 357,
		"time_elapsed": 647514,
		"internal_node_id": "0.0-3.0-1.292"
	},
	{
		"rt": null,
		"stimulus": "<span style= \"font-size:30px; font-family: monospace\">+</span>",
		"response": null,
		"trial_part": "fixation",
		"trial_type": "html-keyboard-response",
		"trial_index": 358,
		"time_elapsed": 648784,
		"internal_node_id": "0.0-3.0-0.293-0.293"
	},
	{
		"rt": 669,
		"stimulus": "../audio/07-1-masc.mp3",
		"response": " ",
		"word": "Meu",
		"trial_type": "audio-keyboard-response",
		"trial_index": 359,
		"time_elapsed": 650223,
		"internal_node_id": "0.0-3.0-1.293"
	},
	{
		"rt": 771,
		"stimulus": "../audio/07-2-masc.mp3",
		"response": " ",
		"word": "filho",
		"trial_type": "audio-keyboard-response",
		"trial_index": 360,
		"time_elapsed": 651520,
		"internal_node_id": "0.0-3.0-1.294"
	},
	{
		"rt": 728,
		"stimulus": "../audio/07-3-masc.mp3",
		"response": " ",
		"word": "é",
		"trial_type": "audio-keyboard-response",
		"trial_index": 361,
		"time_elapsed": 652730,
		"internal_node_id": "0.0-3.0-1.295"
	},
	{
		"rt": 869,
		"stimulus": "../audio/07-4-masc.mp3",
		"response": " ",
		"word": "muito",
		"trial_type": "audio-keyboard-response",
		"trial_index": 362,
		"time_elapsed": 654224,
		"internal_node_id": "0.0-3.0-1.296"
	},
	{
		"rt": 1539,
		"stimulus": "../audio/07-5-masc.mp3",
		"response": " ",
		"word": "responsável",
		"trial_type": "audio-keyboard-response",
		"trial_index": 363,
		"time_elapsed": 656616,
		"internal_node_id": "0.0-3.0-1.297"
	},
	{
		"rt": 920,
		"stimulus": "../audio/07-6-masc.mp3",
		"response": " ",
		"word": "nos",
		"trial_type": "audio-keyboard-response",
		"trial_index": 364,
		"time_elapsed": 658412,
		"internal_node_id": "0.0-3.0-1.298"
	},
	{
		"rt": 2491,
		"stimulus": "../audio/07-7-masc.mp3",
		"response": " ",
		"word": "estudos.",
		"trial_type": "audio-keyboard-response",
		"trial_index": 365,
		"time_elapsed": 661470,
		"internal_node_id": "0.0-3.0-1.299"
	},
	{
		"rt": null,
		"stimulus": "<span style= \"font-size:30px; font-family: monospace\">+</span>",
		"response": null,
		"trial_part": "fixation",
		"trial_type": "html-keyboard-response",
		"trial_index": 366,
		"time_elapsed": 662733,
		"internal_node_id": "0.0-3.0-0.300-0.300"
	},
	{
		"rt": 800,
		"stimulus": "../audio/10-1-fem.mp3",
		"response": " ",
		"word": "O",
		"trial_type": "audio-keyboard-response",
		"trial_index": 367,
		"time_elapsed": 664242,
		"internal_node_id": "0.0-3.0-1.300"
	},
	{
		"rt": 1160,
		"stimulus": "../audio/10-2-fem.mp3",
		"response": " ",
		"word": "pássaro",
		"trial_type": "audio-keyboard-response",
		"trial_index": 368,
		"time_elapsed": 666281,
		"internal_node_id": "0.0-3.0-1.301"
	},
	{
		"rt": 880,
		"stimulus": "../audio/10-3-fem.mp3",
		"response": " ",
		"word": "azul",
		"trial_type": "audio-keyboard-response",
		"trial_index": 369,
		"time_elapsed": 667624,
		"internal_node_id": "0.0-3.0-1.302"
	},
	{
		"rt": 851,
		"stimulus": "../audio/10-4-fem.mp3",
		"response": " ",
		"word": "estava",
		"trial_type": "audio-keyboard-response",
		"trial_index": 370,
		"time_elapsed": 669042,
		"internal_node_id": "0.0-3.0-1.303"
	},
	{
		"rt": 749,
		"stimulus": "../audio/10-5-fem.mp3",
		"response": " ",
		"word": "vivo",
		"trial_type": "audio-keyboard-response",
		"trial_index": 371,
		"time_elapsed": 670267,
		"internal_node_id": "0.0-3.0-1.304"
	},
	{
		"rt": 629,
		"stimulus": "../audio/10-6-fem.mp3",
		"response": " ",
		"word": "e",
		"trial_type": "audio-keyboard-response",
		"trial_index": 372,
		"time_elapsed": 671337,
		"internal_node_id": "0.0-3.0-1.305"
	},
	{
		"rt": 672,
		"stimulus": "../audio/10-7-fem.mp3",
		"response": " ",
		"word": "em",
		"trial_type": "audio-keyboard-response",
		"trial_index": 373,
		"time_elapsed": 672443,
		"internal_node_id": "0.0-3.0-1.306"
	},
	{
		"rt": 1469,
		"stimulus": "../audio/10-8-fem.mp3",
		"response": " ",
		"word": "segurança.",
		"trial_type": "audio-keyboard-response",
		"trial_index": 374,
		"time_elapsed": 674576,
		"internal_node_id": "0.0-3.0-1.307"
	},
	{
		"rt": 4875,
		"stimulus": "<span style=\"font-size:25px; font-family: monospace\">O pássaro vermelho estava em segurança?</span>",
		"response": "n",
		"question": "O pássaro vermelho estava em segurança?",
		"answer": "null",
		"trial": "exp-sent",
		"trial_type": "html-keyboard-response",
		"trial_index": 375,
		"time_elapsed": 679715,
		"internal_node_id": "0.0-3.0-2.307-0.307",
		"accuracy": false
	},
	{
		"rt": null,
		"stimulus": "<span style= \"font-size:30px; font-family: monospace\">+</span>",
		"response": null,
		"trial_part": "fixation",
		"trial_type": "html-keyboard-response",
		"trial_index": 376,
		"time_elapsed": 681235,
		"internal_node_id": "0.0-3.0-0.308-0.308"
	},
	{
		"rt": 2469,
		"stimulus": "../audio/61-1-fem.mp3",
		"response": " ",
		"word": "Aquele",
		"trial_type": "audio-keyboard-response",
		"trial_index": 377,
		"time_elapsed": 684507,
		"internal_node_id": "0.0-3.0-1.308"
	},
	{
		"rt": 979,
		"stimulus": "../audio/61-2-fem.mp3",
		"response": " ",
		"word": "senhor",
		"trial_type": "audio-keyboard-response",
		"trial_index": 378,
		"time_elapsed": 686294,
		"internal_node_id": "0.0-3.0-1.309"
	},
	{
		"rt": 640,
		"stimulus": "../audio/61-3-fem.mp3",
		"response": " ",
		"word": "é",
		"trial_type": "audio-keyboard-response",
		"trial_index": 379,
		"time_elapsed": 687350,
		"internal_node_id": "0.0-3.0-1.310"
	},
	{
		"rt": 549,
		"stimulus": "../audio/61-4-fem.mp3",
		"response": " ",
		"word": "muito",
		"trial_type": "audio-keyboard-response",
		"trial_index": 380,
		"time_elapsed": 688491,
		"internal_node_id": "0.0-3.0-1.311"
	},
	{
		"rt": 688,
		"stimulus": "../audio/61-5-fem.mp3",
		"response": " ",
		"word": "sovina",
		"trial_type": "audio-keyboard-response",
		"trial_index": 381,
		"time_elapsed": 689776,
		"internal_node_id": "0.0-3.0-1.312"
	},
	{
		"rt": 792,
		"stimulus": "../audio/61-6-fem.mp3",
		"response": " ",
		"word": "e",
		"trial_type": "audio-keyboard-response",
		"trial_index": 382,
		"time_elapsed": 691006,
		"internal_node_id": "0.0-3.0-1.313"
	},
	{
		"rt": 3840,
		"stimulus": "../audio/61-7-fem.mp3",
		"response": " ",
		"word": "inflexível.",
		"trial_type": "audio-keyboard-response",
		"trial_index": 383,
		"time_elapsed": 695661,
		"internal_node_id": "0.0-3.0-1.314"
	},
	{
		"rt": null,
		"stimulus": "<span style= \"font-size:30px; font-family: monospace\">+</span>",
		"response": null,
		"trial_part": "fixation",
		"trial_type": "html-keyboard-response",
		"trial_index": 384,
		"time_elapsed": 696920,
		"internal_node_id": "0.0-3.0-0.315-0.315"
	},
	{
		"rt": 848,
		"stimulus": "../audio/62-1-masc.mp3",
		"response": " ",
		"word": "As",
		"trial_type": "audio-keyboard-response",
		"trial_index": 385,
		"time_elapsed": 698732,
		"internal_node_id": "0.0-3.0-1.315"
	},
	{
		"rt": 1221,
		"stimulus": "../audio/62-2-masc.mp3",
		"response": " ",
		"word": "artesãs",
		"trial_type": "audio-keyboard-response",
		"trial_index": 386,
		"time_elapsed": 700601,
		"internal_node_id": "0.0-3.0-1.316"
	},
	{
		"rt": 971,
		"stimulus": "../audio/62-3-masc.mp3",
		"response": " ",
		"word": "gostam",
		"trial_type": "audio-keyboard-response",
		"trial_index": 387,
		"time_elapsed": 702234,
		"internal_node_id": "0.0-3.0-1.317"
	},
	{
		"rt": 1120,
		"stimulus": "../audio/62-4-masc.mp3",
		"response": " ",
		"word": "de",
		"trial_type": "audio-keyboard-response",
		"trial_index": 388,
		"time_elapsed": 704018,
		"internal_node_id": "0.0-3.0-1.318"
	},
	{
		"rt": 3099,
		"stimulus": "../audio/62-5-masc.mp3",
		"response": " ",
		"word": "maquiagem",
		"trial_type": "audio-keyboard-response",
		"trial_index": 389,
		"time_elapsed": 707777,
		"internal_node_id": "0.0-3.0-1.319"
	},
	{
		"rt": 709,
		"stimulus": "../audio/62-6-masc.mp3",
		"response": " ",
		"word": "e",
		"trial_type": "audio-keyboard-response",
		"trial_index": 390,
		"time_elapsed": 710577,
		"internal_node_id": "0.0-3.0-1.320"
	},
	{
		"rt": 779,
		"stimulus": "../audio/62-7-masc.mp3",
		"response": " ",
		"word": "de",
		"trial_type": "audio-keyboard-response",
		"trial_index": 391,
		"time_elapsed": 711870,
		"internal_node_id": "0.0-3.0-1.321"
	},
	{
		"rt": 1451,
		"stimulus": "../audio/62-8-masc.mp3",
		"response": " ",
		"word": "crochê.",
		"trial_type": "audio-keyboard-response",
		"trial_index": 392,
		"time_elapsed": 714084,
		"internal_node_id": "0.0-3.0-1.322"
	},
	{
		"rt": null,
		"stimulus": "<span style= \"font-size:30px; font-family: monospace\">+</span>",
		"response": null,
		"trial_part": "fixation",
		"trial_type": "html-keyboard-response",
		"trial_index": 393,
		"time_elapsed": 715351,
		"internal_node_id": "0.0-3.0-0.323-0.323"
	},
	{
		"rt": 672,
		"stimulus": "../audio/64-1-fem.mp3",
		"response": " ",
		"word": "O",
		"trial_type": "audio-keyboard-response",
		"trial_index": 394,
		"time_elapsed": 716920,
		"internal_node_id": "0.0-3.0-1.323"
	},
	{
		"rt": 811,
		"stimulus": "../audio/64-2-fem.mp3",
		"response": " ",
		"word": "dia",
		"trial_type": "audio-keyboard-response",
		"trial_index": 395,
		"time_elapsed": 718150,
		"internal_node_id": "0.0-3.0-1.324"
	},
	{
		"rt": 1029,
		"stimulus": "../audio/64-3-fem.mp3",
		"response": " ",
		"word": "começou",
		"trial_type": "audio-keyboard-response",
		"trial_index": 396,
		"time_elapsed": 719787,
		"internal_node_id": "0.0-3.0-1.325"
	},
	{
		"rt": 619,
		"stimulus": "../audio/64-4-fem.mp3",
		"response": " ",
		"word": "com",
		"trial_type": "audio-keyboard-response",
		"trial_index": 397,
		"time_elapsed": 720948,
		"internal_node_id": "0.0-3.0-1.326"
	},
	{
		"rt": 1088,
		"stimulus": "../audio/64-5-fem.mp3",
		"response": " ",
		"word": "garoa",
		"trial_type": "audio-keyboard-response",
		"trial_index": 398,
		"time_elapsed": 722614,
		"internal_node_id": "0.0-3.0-1.327"
	},
	{
		"rt": 731,
		"stimulus": "../audio/64-6-fem.mp3",
		"response": " ",
		"word": "gelada",
		"trial_type": "audio-keyboard-response",
		"trial_index": 399,
		"time_elapsed": 724626,
		"internal_node_id": "0.0-3.0-1.328"
	},
	{
		"rt": 659,
		"stimulus": "../audio/64-7-fem.mp3",
		"response": " ",
		"word": "e",
		"trial_type": "audio-keyboard-response",
		"trial_index": 400,
		"time_elapsed": 726370,
		"internal_node_id": "0.0-3.0-1.329"
	},
	{
		"rt": 1440,
		"stimulus": "../audio/64-8-fem.mp3",
		"response": " ",
		"word": "leve.",
		"trial_type": "audio-keyboard-response",
		"trial_index": 401,
		"time_elapsed": 728512,
		"internal_node_id": "0.0-3.0-1.330"
	},
	{
		"rt": null,
		"stimulus": "<span style= \"font-size:30px; font-family: monospace\">+</span>",
		"response": null,
		"trial_part": "fixation",
		"trial_type": "html-keyboard-response",
		"trial_index": 402,
		"time_elapsed": 729772,
		"internal_node_id": "0.0-3.0-0.331-0.331"
	},
	{
		"rt": 699,
		"stimulus": "../audio/63-1-fem.mp3",
		"response": " ",
		"word": "A",
		"trial_type": "audio-keyboard-response",
		"trial_index": 403,
		"time_elapsed": 731666,
		"internal_node_id": "0.0-3.0-1.331"
	},
	{
		"rt": 829,
		"stimulus": "../audio/63-2-fem.mp3",
		"response": " ",
		"word": "chuva",
		"trial_type": "audio-keyboard-response",
		"trial_index": 404,
		"time_elapsed": 733222,
		"internal_node_id": "0.0-3.0-1.332"
	},
	{
		"rt": 1160,
		"stimulus": "../audio/63-3-fem.mp3",
		"response": " ",
		"word": "entrou",
		"trial_type": "audio-keyboard-response",
		"trial_index": 405,
		"time_elapsed": 734838,
		"internal_node_id": "0.0-3.0-1.333"
	},
	{
		"rt": 848,
		"stimulus": "../audio/63-4-fem.mp3",
		"response": " ",
		"word": "pela",
		"trial_type": "audio-keyboard-response",
		"trial_index": 406,
		"time_elapsed": 736539,
		"internal_node_id": "0.0-3.0-1.334"
	},
	{
		"rt": 1389,
		"stimulus": "../audio/63-5-fem.mp3",
		"response": " ",
		"word": "abertura",
		"trial_type": "audio-keyboard-response",
		"trial_index": 407,
		"time_elapsed": 738617,
		"internal_node_id": "0.0-3.0-1.335"
	},
	{
		"rt": 840,
		"stimulus": "../audio/63-6-fem.mp3",
		"response": " ",
		"word": "na",
		"trial_type": "audio-keyboard-response",
		"trial_index": 408,
		"time_elapsed": 740302,
		"internal_node_id": "0.0-3.0-1.336"
	},
	{
		"rt": 4101,
		"stimulus": "../audio/63-7-fem.mp3",
		"response": " ",
		"word": "janela.",
		"trial_type": "audio-keyboard-response",
		"trial_index": 409,
		"time_elapsed": 745323,
		"internal_node_id": "0.0-3.0-1.337"
	},
	{
		"rt": null,
		"stimulus": "<span style= \"font-size:30px; font-family: monospace\">+</span>",
		"response": null,
		"trial_part": "fixation",
		"trial_type": "html-keyboard-response",
		"trial_index": 410,
		"time_elapsed": 746599,
		"internal_node_id": "0.0-3.0-0.338-0.338"
	},
	{
		"rt": 840,
		"stimulus": "../audio/65-1-fem.mp3",
		"response": " ",
		"word": "O",
		"trial_type": "audio-keyboard-response",
		"trial_index": 411,
		"time_elapsed": 748579,
		"internal_node_id": "0.0-3.0-1.338"
	},
	{
		"rt": 1480,
		"stimulus": "../audio/65-2-fem.mp3",
		"response": " ",
		"word": "fantasma",
		"trial_type": "audio-keyboard-response",
		"trial_index": 412,
		"time_elapsed": 750877,
		"internal_node_id": "0.0-3.0-1.339"
	},
	{
		"rt": 1240,
		"stimulus": "../audio/65-3-fem.mp3",
		"response": " ",
		"word": "veio",
		"trial_type": "audio-keyboard-response",
		"trial_index": 413,
		"time_elapsed": 753091,
		"internal_node_id": "0.0-3.0-1.340"
	},
	{
		"rt": 968,
		"stimulus": "../audio/65-4-fem.mp3",
		"response": " ",
		"word": "da",
		"trial_type": "audio-keyboard-response",
		"trial_index": 414,
		"time_elapsed": 754455,
		"internal_node_id": "0.0-3.0-1.341"
	},
	{
		"rt": 2109,
		"stimulus": "../audio/65-5-fem.mp3",
		"response": " ",
		"word": "escuridão",
		"trial_type": "audio-keyboard-response",
		"trial_index": 415,
		"time_elapsed": 757314,
		"internal_node_id": "0.0-3.0-1.342"
	},
	{
		"rt": 699,
		"stimulus": "../audio/65-6-fem.mp3",
		"response": " ",
		"word": "do",
		"trial_type": "audio-keyboard-response",
		"trial_index": 416,
		"time_elapsed": 758698,
		"internal_node_id": "0.0-3.0-1.343"
	},
	{
		"rt": 1960,
		"stimulus": "../audio/65-7-fem.mp3",
		"response": " ",
		"word": "armário.",
		"trial_type": "audio-keyboard-response",
		"trial_index": 417,
		"time_elapsed": 761212,
		"internal_node_id": "0.0-3.0-1.344"
	},
	{
		"rt": 3023,
		"stimulus": "<span style=\"font-size:25px; font-family: monospace\">O fantasma veio da escuridão do armário?</span>",
		"response": "s",
		"question": "O fantasma veio da escuridão do armário?",
		"answer": "null",
		"trial": "exp-sent",
		"trial_type": "html-keyboard-response",
		"trial_index": 418,
		"time_elapsed": 764504,
		"internal_node_id": "0.0-3.0-2.344-0.344",
		"accuracy": false
	},
	{
		"rt": null,
		"stimulus": "<span style= \"font-size:30px; font-family: monospace\">+</span>",
		"response": null,
		"trial_part": "fixation",
		"trial_type": "html-keyboard-response",
		"trial_index": 419,
		"time_elapsed": 766026,
		"internal_node_id": "0.0-3.0-0.345-0.345"
	},
	{
		"rt": 209440,
		"stimulus": "../audio/56-1-fem.mp3",
		"response": " ",
		"word": "A",
		"trial_type": "audio-keyboard-response",
		"trial_index": 420,
		"time_elapsed": 977170,
		"internal_node_id": "0.0-3.0-1.345"
	},
	{
		"rt": 1408,
		"stimulus": "../audio/56-2-fem.mp3",
		"response": " ",
		"word": "moça",
		"trial_type": "audio-keyboard-response",
		"trial_index": 421,
		"time_elapsed": 979217,
		"internal_node_id": "0.0-3.0-1.346"
	},
	{
		"rt": 1120,
		"stimulus": "../audio/56-3-fem.mp3",
