"view_history","rt","trial_type","trial_index","time_elapsed","internal_node_id","stimulus","response","trial_part","word","question","answer","trial","accuracy"
"[{""page_index"":0,""viewing_time"":18433},{""page_index"":1,""viewing_time"":18237}]","36673","instructions","0","36682","0.0-0.0","","","","","","","",""
"","null","html-keyboard-response","1","37875","0.0-1.0-0.0-0.0","<span style= ""font-size:30px; font-family: monospace"">+</span>","null","fixation","","","","",""
"","2339","audio-keyboard-response","2","41707","0.0-1.0-1.0","../audio/prac-question-1-1.mp3"," ","","O","","","",""
"","1640","audio-keyboard-response","3","44194","0.0-1.0-1.1","../audio/prac-question-1-2.mp3"," ","","dia","","","",""
"","1661","audio-keyboard-response","4","46874","0.0-1.0-1.2","../audio/prac-question-1-3.mp3"," ","","estará","","","",""
"","1749","audio-keyboard-response","5","49035","0.0-1.0-1.3","../audio/prac-question-1-4.mp3"," ","","cheio","","","",""
"","1211","audio-keyboard-response","6","50900","0.0-1.0-1.4","../audio/prac-question-1-5.mp3"," ","","de","","","",""
"","1869","audio-keyboard-response","7","53298","0.0-1.0-1.5","../audio/prac-question-1-6.mp3"," ","","nuvens","","","",""
"","4512","audio-keyboard-response","8","58526","0.0-1.0-1.6","../audio/prac-question-1-7.mp3"," ","","hoje.","","","",""
"","null","html-keyboard-response","9","59788","0.0-1.0-0.7-0.7","<span style= ""font-size:30px; font-family: monospace"">+</span>","null","fixation","","","","",""
"","1208","audio-keyboard-response","10","61818","0.0-1.0-1.7","../audio/prac-question-2-1.mp3"," ","","A","","","",""
"","1669","audio-keyboard-response","11","64114","0.0-1.0-1.8","../audio/prac-question-2-2.mp3"," ","","caneca","","","",""
"","1779","audio-keyboard-response","12","66891","0.0-1.0-1.9","../audio/prac-question-2-3.mp3"," ","","colorida","","","",""
"","1309","audio-keyboard-response","13","68896","0.0-1.0-1.10","../audio/prac-question-2-4.mp3"," ","","caiu","","","",""
"","979","audio-keyboard-response","14","70580","0.0-1.0-1.11","../audio/prac-question-2-5.mp3"," ","","da","","","",""
"","1381","audio-keyboard-response","15","72393","0.0-1.0-1.12","../audio/prac-question-2-6.mp3"," ","","mesa","","","",""
"","989","audio-keyboard-response","16","73895","0.0-1.0-1.13","../audio/prac-question-2-7.mp3"," ","","de","","","",""
"","1691","audio-keyboard-response","17","76559","0.0-1.0-1.14","../audio/prac-question-2-8.mp3"," ","","jantar.","","","",""
"","3477","html-keyboard-response","18","80308","0.0-1.0-2.14-0.14","<span style=""font-size:25px; font-family: monospace"">A caneca era colorida?</span>","s","","","A caneca era colorida?","null","prac-sent","false"
"[{""page_index"":0,""viewing_time"":9171}]","9183","instructions","19","90003","0.0-2.0","","","","","","","",""
"","null","html-keyboard-response","20","91118","0.0-3.0-0.0-0.0","<span style= ""font-size:30px; font-family: monospace"">+</span>","null","fixation","","","","",""
"","1381","audio-keyboard-response","21","93320","0.0-3.0-1.0","../audio/44-1-masc.mp3"," ","","Meus","","","",""
"","1221","audio-keyboard-response","22","95004","0.0-3.0-1.1","../audio/44-2-masc.mp3"," ","","irmãos","","","",""
"","1261","audio-keyboard-response","23","96763","0.0-3.0-1.2","../audio/44-3-masc.mp3"," ","","brigam","","","",""
"","872","audio-keyboard-response","24","98123","0.0-3.0-1.3","../audio/44-4-masc.mp3"," ","","por","","","",""
"","1171","audio-keyboard-response","25","99837","0.0-3.0-1.4","../audio/44-5-masc.mp3"," ","","bobagem","","","",""
"","821","audio-keyboard-response","26","101364","0.0-3.0-1.5","../audio/44-6-masc.mp3"," ","","todos","","","",""
"","749","audio-keyboard-response","27","102552","0.0-3.0-1.6","../audio/44-7-masc.mp3"," ","","os","","","",""
"","1301","audio-keyboard-response","28","104405","0.0-3.0-1.7","../audio/44-8-masc.mp3"," ","","dias.","","","",""
"","null","html-keyboard-response","29","105678","0.0-3.0-0.8-0.8","<span style= ""font-size:30px; font-family: monospace"">+</span>","null","fixation","","","","",""
"","739","audio-keyboard-response","30","107169","0.0-3.0-1.8","../audio/42-1-masc.mp3"," ","","Eu","","","",""
"","731","audio-keyboard-response","31","108300","0.0-3.0-1.9","../audio/42-2-masc.mp3"," ","","fui","","","",""
"","811","audio-keyboard-response","32","109524","0.0-3.0-1.10","../audio/42-3-masc.mp3"," ","","a","","","",""
"","891","audio-keyboard-response","33","110948","0.0-3.0-1.11","../audio/42-4-masc.mp3"," ","","uma","","","",""
"","800","audio-keyboard-response","34","112300","0.0-3.0-1.12","../audio/42-5-masc.mp3"," ","","loja","","","",""
"","611","audio-keyboard-response","35","113324","0.0-3.0-1.13","../audio/42-6-masc.mp3"," ","","de","","","",""
"","960","audio-keyboard-response","36","114829","0.0-3.0-1.14","../audio/42-7-masc.mp3"," ","","móveis","","","",""
"","731","audio-keyboard-response","37","116012","0.0-3.0-1.15","../audio/42-8-masc.mp3"," ","","no","","","",""
"","1600","audio-keyboard-response","38","118141","0.0-3.0-1.16","../audio/42-9-masc.mp3"," ","","bairro.","","","",""
"","null","html-keyboard-response","39","119402","0.0-3.0-0.17-0.17","<span style= ""font-size:30px; font-family: monospace"">+</span>","null","fixation","","","","",""
"","1040","audio-keyboard-response","40","121157","0.0-3.0-1.17","../audio/43-1-fem.mp3"," ","","Eu","","","",""
"","1221","audio-keyboard-response","41","122984","0.0-3.0-1.18","../audio/43-2-fem.mp3"," ","","achei","","","",""
"","941","audio-keyboard-response","42","124349","0.0-3.0-1.19","../audio/43-3-fem.mp3"," ","","um","","","",""
"","1200","audio-keyboard-response","43","126325","0.0-3.0-1.20","../audio/43-4-fem.mp3"," ","","colchão","","","",""
"","1109","audio-keyboard-response","44","127970","0.0-3.0-1.21","../audio/43-5-fem.mp3"," ","","velho","","","",""
"","1040","audio-keyboard-response","45","129448","0.0-3.0-1.22","../audio/43-6-fem.mp3"," ","","e","","","",""
"","1448","audio-keyboard-response","46","131403","0.0-3.0-1.23","../audio/43-7-fem.mp3"," ","","imundo","","","",""
"","1069","audio-keyboard-response","47","132879","0.0-3.0-1.24","../audio/43-8-fem.mp3"," ","","na","","","",""
"","2160","audio-keyboard-response","48","135481","0.0-3.0-1.25","../audio/43-9-fem.mp3"," ","","casa.","","","",""
"","null","html-keyboard-response","49","136756","0.0-3.0-0.26-0.26","<span style= ""font-size:30px; font-family: monospace"">+</span>","null","fixation","","","","",""
"","781","audio-keyboard-response","50","138421","0.0-3.0-1.26","../audio/41-1-fem.mp3"," ","","A","","","",""
"","1309","audio-keyboard-response","51","140359","0.0-3.0-1.27","../audio/41-2-fem.mp3"," ","","novela","","","",""
"","1040","audio-keyboard-response","52","141943","0.0-3.0-1.28","../audio/41-3-fem.mp3"," ","","falava","","","",""
"","741","audio-keyboard-response","53","143179","0.0-3.0-1.29","../audio/41-4-fem.mp3"," ","","de","","","",""
"","1069","audio-keyboard-response","54","144805","0.0-3.0-1.30","../audio/41-5-fem.mp3"," ","","paixão","","","",""
"","829","audio-keyboard-response","55","146421","0.0-3.0-1.31","../audio/41-6-fem.mp3"," ","","e","","","",""
"","1621","audio-keyboard-response","56","148579","0.0-3.0-1.32","../audio/41-7-fem.mp3"," ","","comédia.","","","",""
"","null","html-keyboard-response","57","149859","0.0-3.0-0.33-0.33","<span style= ""font-size:30px; font-family: monospace"">+</span>","null","fixation","","","","",""
"","651","audio-keyboard-response","58","151272","0.0-3.0-1.33","../audio/45-1-fem.mp3"," ","","O","","","",""
"","981","audio-keyboard-response","59","152744","0.0-3.0-1.34","../audio/45-2-fem.mp3"," ","","homem","","","",""
"","1029","audio-keyboard-response","60","154274","0.0-3.0-1.35","../audio/45-3-fem.mp3"," ","","pagou","","","",""
"","789","audio-keyboard-response","61","155814","0.0-3.0-1.36","../audio/45-4-fem.mp3"," ","","o","","","",""
"","1229","audio-keyboard-response","62","157483","0.0-3.0-1.37","../audio/45-5-fem.mp3"," ","","aluguel","","","",""
"","811","audio-keyboard-response","63","158832","0.0-3.0-1.38","../audio/45-6-fem.mp3"," ","","com","","","",""
"","1432","audio-keyboard-response","64","160870","0.0-3.0-1.39","../audio/45-7-fem.mp3"," ","","atraso.","","","",""
"","3044","html-keyboard-response","65","164181","0.0-3.0-2.39-0.39","<span style=""font-size:25px; font-family: monospace"">O homem pagou o aluguel em dia?</span>","n","","","O homem pagou o aluguel em dia?","null","exp-sent","false"
"","null","html-keyboard-response","66","165713","0.0-3.0-0.40-0.40","<span style= ""font-size:30px; font-family: monospace"">+</span>","null","fixation","","","","",""
"","1011","audio-keyboard-response","67","167343","0.0-3.0-1.40","../audio/19-1-masc.mp3"," ","","O","","","",""
"","880","audio-keyboard-response","68","168626","0.0-3.0-1.41","../audio/19-2-masc.mp3"," ","","menino","","","",""
"","931","audio-keyboard-response","69","170206","0.0-3.0-1.42","../audio/19-3-masc.mp3"," ","","ganhou","","","",""
"","821","audio-keyboard-response","70","171496","0.0-3.0-1.43","../audio/19-4-masc.mp3"," ","","uma","","","",""
"","891","audio-keyboard-response","71","172791","0.0-3.0-1.44","../audio/19-5-masc.mp3"," ","","bala","","","",""
"","912","audio-keyboard-response","72","174269","0.0-3.0-1.45","../audio/19-6-masc.mp3"," ","","depois","","","",""
"","771","audio-keyboard-response","73","175848","0.0-3.0-1.46","../audio/19-7-masc.mp3"," ","","do","","","",""
"","1789","audio-keyboard-response","74","178222","0.0-3.0-1.47","../audio/19-8-masc.mp3"," ","","almoço.","","","",""
"","null","html-keyboard-response","75","179491","0.0-3.0-0.48-0.48","<span style= ""font-size:30px; font-family: monospace"">+</span>","null","fixation","","","","",""
"","728","audio-keyboard-response","76","180841","0.0-3.0-1.48","../audio/16-1-fem.mp3"," ","","Eu","","","",""
"","1080","audio-keyboard-response","77","182447","0.0-3.0-1.49","../audio/16-2-fem.mp3"," ","","nunca","","","",""
"","1091","audio-keyboard-response","78","184108","0.0-3.0-1.50","../audio/16-3-fem.mp3"," ","","conheci","","","",""
"","808","audio-keyboard-response","79","185718","0.0-3.0-1.51","../audio/16-4-fem.mp3"," ","","um","","","",""
"","1288","audio-keyboard-response","80","187559","0.0-3.0-1.52","../audio/16-5-fem.mp3"," ","","general","","","",""
"","760","audio-keyboard-response","81","188743","0.0-3.0-1.53","../audio/16-6-fem.mp3"," ","","do","","","",""
"","1171","audio-keyboard-response","82","190432","0.0-3.0-1.54","../audio/16-7-fem.mp3"," ","","exército.","","","",""
"","null","html-keyboard-response","83","191716","0.0-3.0-0.55-0.55","<span style= ""font-size:30px; font-family: monospace"">+</span>","null","fixation","","","","",""
"","1261","audio-keyboard-response","84","193855","0.0-3.0-1.55","../audio/17-1-fem.mp3"," ","","Falaram","","","",""
"","992","audio-keyboard-response","85","195507","0.0-3.0-1.56","../audio/17-2-fem.mp3"," ","","da","","","",""
"","1080","audio-keyboard-response","86","196998","0.0-3.0-1.57","../audio/17-3-fem.mp3"," ","","lei","","","",""
"","949","audio-keyboard-response","87","198455","0.0-3.0-1.58","../audio/17-4-fem.mp3"," ","","no","","","",""
"","1611","audio-keyboard-response","88","200583","0.0-3.0-1.59","../audio/17-5-fem.mp3"," ","","ministério","","","",""
"","1451","audio-keyboard-response","89","203065","0.0-3.0-1.60","../audio/17-6-fem.mp3"," ","","diversas","","","",""
"","1840","audio-keyboard-response","90","205695","0.0-3.0-1.61","../audio/17-7-fem.mp3"," ","","vezes.","","","",""
"","null","html-keyboard-response","91","206962","0.0-3.0-0.62-0.62","<span style= ""font-size:30px; font-family: monospace"">+</span>","null","fixation","","","","",""
"","909","audio-keyboard-response","92","208559","0.0-3.0-1.62","../audio/18-1-masc.mp3"," ","","O","","","",""
"","1629","audio-keyboard-response","93","210725","0.0-3.0-1.63","../audio/18-2-masc.mp3"," ","","enredo","","","",""
"","821","audio-keyboard-response","94","212375","0.0-3.0-1.64","../audio/18-3-masc.mp3"," ","","traz","","","",""
"","709","audio-keyboard-response","95","213605","0.0-3.0-1.65","../audio/18-4-masc.mp3"," ","","um","","","",""
"","971","audio-keyboard-response","96","215098","0.0-3.0-1.66","../audio/18-5-masc.mp3"," ","","dragão","","","",""
"","949","audio-keyboard-response","97","216606","0.0-3.0-1.67","../audio/18-6-masc.mp3"," ","","forte","","","",""
"","760","audio-keyboard-response","98","217860","0.0-3.0-1.68","../audio/18-7-masc.mp3"," ","","e","","","",""
"","2749","audio-keyboard-response","99","221198","0.0-3.0-1.69","../audio/18-8-masc.mp3"," ","","solitário.","","","",""
"","null","html-keyboard-response","100","222466","0.0-3.0-0.70-0.70","<span style= ""font-size:30px; font-family: monospace"">+</span>","null","fixation","","","","",""
"","760","audio-keyboard-response","101","223996","0.0-3.0-1.70","../audio/20-1-fem.mp3"," ","","O","","","",""
"","1080","audio-keyboard-response","102","225832","0.0-3.0-1.71","../audio/20-2-fem.mp3"," ","","colega","","","",""
"","1309","audio-keyboard-response","103","227736","0.0-3.0-1.72","../audio/20-3-fem.mp3"," ","","parecia","","","",""
"","1091","audio-keyboard-response","104","229348","0.0-3.0-1.73","../audio/20-4-fem.mp3"," ","","muito","","","",""
"","1400","audio-keyboard-response","105","231390","0.0-3.0-1.74","../audio/20-5-fem.mp3"," ","","gripado","","","",""
"","880","audio-keyboard-response","106","233023","0.0-3.0-1.75","../audio/20-6-fem.mp3"," ","","no","","","",""
"","779","audio-keyboard-response","107","234238","0.0-3.0-1.76","../audio/20-7-fem.mp3"," ","","dia","","","",""
"","1669","audio-keyboard-response","108","236809","0.0-3.0-1.77","../audio/20-8-fem.mp3"," ","","anterior.","","","",""
"","13968","html-keyboard-response","109","251039","0.0-3.0-2.77-0.77","<span style=""font-size:25px; font-family: monospace"">O colega parecia muito gripado?</span>","n","","","O colega parecia muito gripado?","null","exp-sent","false"
"","null","html-keyboard-response","110","252575","0.0-3.0-0.78-0.78","<span style= ""font-size:30px; font-family: monospace"">+</span>","null","fixation","","","","",""
"","2789","audio-keyboard-response","111","255777","0.0-3.0-1.78","../audio/76-1-fem.mp3"," ","","O","","","",""
"","1699","audio-keyboard-response","112","257931","0.0-3.0-1.79","../audio/76-2-fem.mp3"," ","","bisavô","","","",""
"","1192","audio-keyboard-response","113","259516","0.0-3.0-1.80","../audio/76-3-fem.mp3"," ","","comprou","","","",""
"","749","audio-keyboard-response","114","260580","0.0-3.0-1.81","../audio/76-4-fem.mp3"," ","","um","","","",""
"","1240","audio-keyboard-response","115","262189","0.0-3.0-1.82","../audio/76-5-fem.mp3"," ","","ralador","","","",""
"","760","audio-keyboard-response","116","263277","0.0-3.0-1.83","../audio/76-6-fem.mp3"," ","","de","","","",""
"","1219","audio-keyboard-response","117","264889","0.0-3.0-1.84","../audio/76-7-fem.mp3"," ","","queijo.","","","",""
"","null","html-keyboard-response","118","266163","0.0-3.0-0.85-0.85","<span style= ""font-size:30px; font-family: monospace"">+</span>","null","fixation","","","","",""
"","891","audio-keyboard-response","119","267492","0.0-3.0-1.85","../audio/77-1-masc.mp3"," ","","A","","","",""
"","1029","audio-keyboard-response","120","268902","0.0-3.0-1.86","../audio/77-2-masc.mp3"," ","","criança","","","",""
"","829","audio-keyboard-response","121","270092","0.0-3.0-1.87","../audio/77-3-masc.mp3"," ","","ficou","","","",""
"","960","audio-keyboard-response","122","271404","0.0-3.0-1.88","../audio/77-4-masc.mp3"," ","","muito","","","",""
"","829","audio-keyboard-response","123","272600","0.0-3.0-1.89","../audio/77-5-masc.mp3"," ","","feliz","","","",""
"","811","audio-keyboard-response","124","273754","0.0-3.0-1.90","../audio/77-6-masc.mp3"," ","","com","","","",""
"","800","audio-keyboard-response","125","274962","0.0-3.0-1.91","../audio/77-7-masc.mp3"," ","","o","","","",""
"","1509","audio-keyboard-response","126","276863","0.0-3.0-1.92","../audio/77-8-masc.mp3"," ","","brinquedo.","","","",""
"","null","html-keyboard-response","127","278143","0.0-3.0-0.93-0.93","<span style= ""font-size:30px; font-family: monospace"">+</span>","null","fixation","","","","",""
"","749","audio-keyboard-response","128","279298","0.0-3.0-1.93","../audio/78-1-fem.mp3"," ","","Eles","","","",""
"","981","audio-keyboard-response","129","280623","0.0-3.0-1.94","../audio/78-2-fem.mp3"," ","","trazem","","","",""
"","760","audio-keyboard-response","130","281715","0.0-3.0-1.95","../audio/78-3-fem.mp3"," ","","um","","","",""
"","1029","audio-keyboard-response","131","283095","0.0-3.0-1.96","../audio/78-4-fem.mp3"," ","","fato","","","",""
"","1429","audio-keyboard-response","132","284925","0.0-3.0-1.97","../audio/78-5-fem.mp3"," ","","urgente","","","",""
"","960","audio-keyboard-response","133","286282","0.0-3.0-1.98","../audio/78-6-fem.mp3"," ","","todos","","","",""
"","819","audio-keyboard-response","134","287445","0.0-3.0-1.99","../audio/78-7-fem.mp3"," ","","os","","","",""
"","1691","audio-keyboard-response","135","289509","0.0-3.0-1.100","../audio/78-8-fem.mp3"," ","","dias.","","","",""
"","null","html-keyboard-response","136","290781","0.0-3.0-0.101-0.101","<span style= ""font-size:30px; font-family: monospace"">+</span>","null","fixation","","","","",""
"","709","audio-keyboard-response","137","291906","0.0-3.0-1.101","../audio/79-1-fem.mp3"," ","","A","","","",""
"","1341","audio-keyboard-response","138","293632","0.0-3.0-1.102","../audio/79-2-fem.mp3"," ","","médica","","","",""
"","1360","audio-keyboard-response","139","295389","0.0-3.0-1.103","../audio/79-3-fem.mp3"," ","","verificou","","","",""
"","960","audio-keyboard-response","140","296693","0.0-3.0-1.104","../audio/79-4-fem.mp3"," ","","a","","","",""
"","1461","audio-keyboard-response","141","298582","0.0-3.0-1.105","../audio/79-5-fem.mp3"," ","","gengiva","","","",""
"","1011","audio-keyboard-response","142","299911","0.0-3.0-1.106","../audio/79-6-fem.mp3"," ","","por","","","",""
"","2611","audio-keyboard-response","143","302870","0.0-3.0-1.107","../audio/79-7-fem.mp3"," ","","último.","","","",""
"","null","html-keyboard-response","144","304127","0.0-3.0-0.108-0.108","<span style= ""font-size:30px; font-family: monospace"">+</span>","null","fixation","","","","",""
"","1011","audio-keyboard-response","145","305614","0.0-3.0-1.108","../audio/80-1-masc.mp3"," ","","Meu","","","",""
"","928","audio-keyboard-response","146","306925","0.0-3.0-1.109","../audio/80-2-masc.mp3"," ","","primo","","","",""
"","971","audio-keyboard-response","147","308294","0.0-3.0-1.110","../audio/80-3-masc.mp3"," ","","conheceu","","","",""
"","1061","audio-keyboard-response","148","309703","0.0-3.0-1.111","../audio/80-4-masc.mp3"," ","","um","","","",""
"","989","audio-keyboard-response","149","311061","0.0-3.0-1.112","../audio/80-5-masc.mp3"," ","","jovem","","","",""
"","1149","audio-keyboard-response","150","312622","0.0-3.0-1.113","../audio/80-6-masc.mp3"," ","","amável","","","",""
"","1032","audio-keyboard-response","151","313988","0.0-3.0-1.114","../audio/80-7-masc.mp3"," ","","e","","","",""
"","4419","audio-keyboard-response","152","318816","0.0-3.0-1.115","../audio/80-8-masc.mp3"," ","","confiante.","","","",""
"","3994","html-keyboard-response","153","323075","0.0-3.0-2.115-0.115","<span style=""font-size:25px; font-family: monospace"">O primo conheceu um jovem irritante?</span>","n","","","O primo conheceu um jovem irritante?","null","exp-sent","false"
"","null","html-keyboard-response","154","324591","0.0-3.0-0.116-0.116","<span style= ""font-size:30px; font-family: monospace"">+</span>","null","fixation","","","","",""
"","1269","audio-keyboard-response","155","326265","0.0-3.0-1.116","../audio/33-1-fem.mp3"," ","","Eles","","","",""
"","1251","audio-keyboard-response","156","327898","0.0-3.0-1.117","../audio/33-2-fem.mp3"," ","","sabem","","","",""
"","819","audio-keyboard-response","157","329048","0.0-3.0-1.118","../audio/33-3-fem.mp3"," ","","do","","","",""
"","1099","audio-keyboard-response","158","330526","0.0-3.0-1.119","../audio/33-4-fem.mp3"," ","","seu","","","",""
"","1229","audio-keyboard-response","159","332145","0.0-3.0-1.120","../audio/33-5-fem.mp3"," ","","privilégio","","","",""
"","1141","audio-keyboard-response","160","333678","0.0-3.0-1.121","../audio/33-6-fem.mp3"," ","","nessa","","","",""
"","1899","audio-keyboard-response","161","335966","0.0-3.0-1.122","../audio/33-7-fem.mp3"," ","","confusão.","","","",""
"","null","html-keyboard-response","162","337240","0.0-3.0-0.123-0.123","<span style= ""font-size:30px; font-family: monospace"">+</span>","null","fixation","","","","",""
"","1269","audio-keyboard-response","163","338974","0.0-3.0-1.123","../audio/34-1-fem.mp3"," ","","Cobrança","","","",""
"","1592","audio-keyboard-response","164","340951","0.0-3.0-1.124","../audio/34-2-fem.mp3"," ","","excessiva","","","",""
"","851","audio-keyboard-response","165","342145","0.0-3.0-1.125","../audio/34-3-fem.mp3"," ","","é","","","",""
"","829","audio-keyboard-response","166","343334","0.0-3.0-1.126","../audio/34-4-fem.mp3"," ","","um","","","",""
"","1200","audio-keyboard-response","167","344902","0.0-3.0-1.127","../audio/34-5-fem.mp3"," ","","fardo","","","",""
"","1080","audio-keyboard-response","168","346383","0.0-3.0-1.128","../audio/34-6-fem.mp3"," ","","para","","","",""
"","1408","audio-keyboard-response","169","348124","0.0-3.0-1.129","../audio/34-7-fem.mp3"," ","","a","","","",""
"","4840","audio-keyboard-response","170","353345","0.0-3.0-1.130","../audio/34-8-fem.mp3"," ","","cabeça.","","","",""
"","null","html-keyboard-response","171","354616","0.0-3.0-0.131-0.131","<span style= ""font-size:30px; font-family: monospace"">+</span>","null","fixation","","","","",""
"","880","audio-keyboard-response","172","355894","0.0-3.0-1.131","../audio/32-1-masc.mp3"," ","","A","","","",""
"","931","audio-keyboard-response","173","357222","0.0-3.0-1.132","../audio/32-2-masc.mp3"," ","","tia","","","",""
"","909","audio-keyboard-response","174","358540","0.0-3.0-1.133","../audio/32-3-masc.mp3"," ","","comprou","","","",""
"","760","audio-keyboard-response","175","359655","0.0-3.0-1.134","../audio/32-4-masc.mp3"," ","","um","","","",""
"","1019","audio-keyboard-response","176","361055","0.0-3.0-1.135","../audio/32-5-masc.mp3"," ","","pilão","","","",""
"","979","audio-keyboard-response","177","362401","0.0-3.0-1.136","../audio/32-6-masc.mp3"," ","","para","","","",""
"","1229","audio-keyboard-response","178","363972","0.0-3.0-1.137","../audio/32-7-masc.mp3"," ","","a","","","",""
"","1621","audio-keyboard-response","179","365951","0.0-3.0-1.138","../audio/32-8-masc.mp3"," ","","cozinha.","","","",""
"","null","html-keyboard-response","180","367215","0.0-3.0-0.139-0.139","<span style= ""font-size:30px; font-family: monospace"">+</span>","null","fixation","","","","",""
"","789","audio-keyboard-response","181","368447","0.0-3.0-1.139","../audio/31-1-masc.mp3"," ","","O","","","",""
"","1168","audio-keyboard-response","182","369960","0.0-3.0-1.140","../audio/31-2-masc.mp3"," ","","padeiro","","","",""
"","949","audio-keyboard-response","183","371265","0.0-3.0-1.141","../audio/31-3-masc.mp3"," ","","usou","","","",""
"","840","audio-keyboard-response","184","372448","0.0-3.0-1.142","../audio/31-4-masc.mp3"," ","","a","","","",""
"","1109","audio-keyboard-response","185","373933","0.0-3.0-1.143","../audio/31-5-masc.mp3"," ","","balança","","","",""
"","851","audio-keyboard-response","186","375191","0.0-3.0-1.144","../audio/31-6-masc.mp3"," ","","o","","","",""
"","888","audio-keyboard-response","187","376402","0.0-3.0-1.145","../audio/31-7-masc.mp3"," ","","dia","","","",""
"","1371","audio-keyboard-response","188","378104","0.0-3.0-1.146","../audio/31-8-masc.mp3"," ","","inteiro.","","","",""
"","null","html-keyboard-response","189","379370","0.0-3.0-0.147-0.147","<span style= ""font-size:30px; font-family: monospace"">+</span>","null","fixation","","","","",""
"","680","audio-keyboard-response","190","380444","0.0-3.0-1.147","../audio/35-1-masc.mp3"," ","","A","","","",""
"","1299","audio-keyboard-response","191","382095","0.0-3.0-1.148","../audio/35-2-masc.mp3"," ","","receita","","","",""
"","1341","audio-keyboard-response","192","383791","0.0-3.0-1.149","../audio/35-3-masc.mp3"," ","","para","","","",""
"","829","audio-keyboard-response","193","385039","0.0-3.0-1.150","../audio/35-4-masc.mp3"," ","","a","","","",""
"","1411","audio-keyboard-response","194","386835","0.0-3.0-1.151","../audio/35-5-masc.mp3"," ","","preparação","","","",""
"","1440","audio-keyboard-response","195","388611","0.0-3.0-1.152","../audio/35-6-masc.mp3"," ","","do","","","",""
"","1160","audio-keyboard-response","196","390124","0.0-3.0-1.153","../audio/35-7-masc.mp3"," ","","bolo","","","",""
"","781","audio-keyboard-response","197","391275","0.0-3.0-1.154","../audio/35-8-masc.mp3"," ","","é","","","",""
"","1411","audio-keyboard-response","198","393073","0.0-3.0-1.155","../audio/35-9-masc.mp3"," ","","leve.","","","",""
"","2682","html-keyboard-response","199","396021","0.0-3.0-2.155-0.155","<span style=""font-size:25px; font-family: monospace"">A receita do bolo é pesada?</span>","n","","","A receita do bolo é pesada?","null","exp-sent","false"
"","null","html-keyboard-response","200","397543","0.0-3.0-0.156-0.156","<span style= ""font-size:30px; font-family: monospace"">+</span>","null","fixation","","","","",""
"","1080","audio-keyboard-response","201","399024","0.0-3.0-1.156","../audio/48-1-masc.mp3"," ","","Ela","","","",""
"","981","audio-keyboard-response","202","400354","0.0-3.0-1.157","../audio/48-2-masc.mp3"," ","","come","","","",""
"","792","audio-keyboard-response","203","401473","0.0-3.0-1.158","../audio/48-3-masc.mp3"," ","","feijão","","","",""
"","749","audio-keyboard-response","204","402531","0.0-3.0-1.159","../audio/48-4-masc.mp3"," ","","com","","","",""
"","920","audio-keyboard-response","205","403839","0.0-3.0-1.160","../audio/48-5-masc.mp3"," ","","arroz","","","",""
"","659","audio-keyboard-response","206","404976","0.0-3.0-1.161","../audio/48-6-masc.mp3"," ","","todos","","","",""
"","648","audio-keyboard-response","207","405967","0.0-3.0-1.162","../audio/48-7-masc.mp3"," ","","os","","","",""
"","3381","audio-keyboard-response","208","409711","0.0-3.0-1.163","../audio/48-8-masc.mp3"," ","","dias.","","","",""
"","null","html-keyboard-response","209","410973","0.0-3.0-0.164-0.164","<span style= ""font-size:30px; font-family: monospace"">+</span>","null","fixation","","","","",""
"","1469","audio-keyboard-response","210","412816","0.0-3.0-1.164","../audio/47-1-fem.mp3"," ","","O","","","",""
"","1032","audio-keyboard-response","211","414193","0.0-3.0-1.165","../audio/47-2-fem.mp3"," ","","tio","","","",""
"","1291","audio-keyboard-response","212","415981","0.0-3.0-1.166","../audio/47-3-fem.mp3"," ","","recusou","","","",""
"","891","audio-keyboard-response","213","417216","0.0-3.0-1.167","../audio/47-4-fem.mp3"," ","","a","","","",""
"","4771","audio-keyboard-response","214","422377","0.0-3.0-1.168","../audio/47-5-fem.mp3"," ","","sobremesa","","","",""
"","1000","audio-keyboard-response","215","423752","0.0-3.0-1.169","../audio/47-6-fem.mp3"," ","","no","","","",""
"","1691","audio-keyboard-response","216","425826","0.0-3.0-1.170","../audio/47-7-fem.mp3"," ","","almoço.","","","",""
"","null","html-keyboard-response","217","427090","0.0-3.0-0.171-0.171","<span style= ""font-size:30px; font-family: monospace"">+</span>","null","fixation","","","","",""
"","709","audio-keyboard-response","218","428217","0.0-3.0-1.171","../audio/46-1-masc.mp3"," ","","Meu","","","",""
"","800","audio-keyboard-response","219","429364","0.0-3.0-1.172","../audio/46-2-masc.mp3"," ","","primo","","","",""
"","1000","audio-keyboard-response","220","430714","0.0-3.0-1.173","../audio/46-3-masc.mp3"," ","","estava","","","",""
"","891","audio-keyboard-response","221","431986","0.0-3.0-1.174","../audio/46-4-masc.mp3"," ","","muito","","","",""
"","1171","audio-keyboard-response","222","433542","0.0-3.0-1.175","../audio/46-5-masc.mp3"," ","","deprimido","","","",""
"","709","audio-keyboard-response","223","434602","0.0-3.0-1.176","../audio/46-6-masc.mp3"," ","","no","","","",""
"","1160","audio-keyboard-response","224","436189","0.0-3.0-1.177","../audio/46-7-masc.mp3"," ","","inverno.","","","",""
"","null","html-keyboard-response","225","437460","0.0-3.0-0.178-0.178","<span style= ""font-size:30px; font-family: monospace"">+</span>","null","fixation","","","","",""
"","779","audio-keyboard-response","226","438618","0.0-3.0-1.178","../audio/49-1-fem.mp3"," ","","Eu","","","",""
"","709","audio-keyboard-response","227","439697","0.0-3.0-1.179","../audio/49-2-fem.mp3"," ","","quero","","","",""
"","691","audio-keyboard-response","228","440736","0.0-3.0-1.180","../audio/49-3-fem.mp3"," ","","um","","","",""
"","851","audio-keyboard-response","229","441956","0.0-3.0-1.181","../audio/49-4-fem.mp3"," ","","lanche","","","",""
"","768","audio-keyboard-response","230","443085","0.0-3.0-1.182","../audio/49-5-fem.mp3"," ","","duplo","","","",""
"","739","audio-keyboard-response","231","444180","0.0-3.0-1.183","../audio/49-6-fem.mp3"," ","","e","","","",""
"","659","audio-keyboard-response","232","445249","0.0-3.0-1.184","../audio/49-7-fem.mp3"," ","","um","","","",""
"","1931","audio-keyboard-response","233","447549","0.0-3.0-1.185","../audio/49-8-fem.mp3"," ","","suco.","","","",""
"","null","html-keyboard-response","234","448813","0.0-3.0-0.186-0.186","<span style= ""font-size:30px; font-family: monospace"">+</span>","null","fixation","","","","",""
"","720","audio-keyboard-response","235","449934","0.0-3.0-1.186","../audio/50-1-masc.mp3"," ","","O","","","",""
"","1101","audio-keyboard-response","236","451350","0.0-3.0-1.187","../audio/50-2-masc.mp3"," ","","pássaro","","","",""
"","1008","audio-keyboard-response","237","452682","0.0-3.0-1.188","../audio/50-3-masc.mp3"," ","","fugiu","","","",""
"","800","audio-keyboard-response","238","453827","0.0-3.0-1.189","../audio/50-4-masc.mp3"," ","","da","","","",""
"","1419","audio-keyboard-response","239","455607","0.0-3.0-1.190","../audio/50-5-masc.mp3"," ","","gaiola","","","",""
"","891","audio-keyboard-response","240","456907","0.0-3.0-1.191","../audio/50-6-masc.mp3"," ","","pela","","","",""
"","3541","audio-keyboard-response","241","460831","0.0-3.0-1.192","../audio/50-7-masc.mp3"," ","","portinhola.","","","",""
"","3410","html-keyboard-response","242","464503","0.0-3.0-2.192-0.192","<span style=""font-size:25px; font-family: monospace"">O pássaro fugiu da gaiola?</span>","s","","","O pássaro fugiu da gaiola?","null","exp-sent","false"
"","null","html-keyboard-response","243","466022","0.0-3.0-0.193-0.193","<span style= ""font-size:30px; font-family: monospace"">+</span>","null","fixation","","","","",""
"","4248","audio-keyboard-response","244","470646","0.0-3.0-1.193","../audio/72-1-fem.mp3"," ","","A","","","",""
"","1440","audio-keyboard-response","245","472512","0.0-3.0-1.194","../audio/72-2-fem.mp3"," ","","vencedora","","","",""
"","1011","audio-keyboard-response","246","473838","0.0-3.0-1.195","../audio/72-3-fem.mp3"," ","","recebeu","","","",""
"","819","audio-keyboard-response","247","474964","0.0-3.0-1.196","../audio/72-4-fem.mp3"," ","","um","","","",""
"","712","audio-keyboard-response","248","476080","0.0-3.0-1.197","../audio/72-5-fem.mp3"," ","","prêmio","","","",""
"","741","audio-keyboard-response","249","477159","0.0-3.0-1.198","../audio/72-6-fem.mp3"," ","","em","","","",""
"","1341","audio-keyboard-response","250","478909","0.0-3.0-1.199","../audio/72-7-fem.mp3"," ","","dinheiro.","","","",""
"","null","html-keyboard-response","251","480174","0.0-3.0-0.200-0.200","<span style= ""font-size:30px; font-family: monospace"">+</span>","null","fixation","","","","",""
"","771","audio-keyboard-response","252","481333","0.0-3.0-1.200","../audio/73-1-masc.mp3"," ","","O","","","",""
"","811","audio-keyboard-response","253","482540","0.0-3.0-1.201","../audio/73-2-masc.mp3"," ","","cliente","","","",""
"","829","audio-keyboard-response","254","483730","0.0-3.0-1.202","../audio/73-3-masc.mp3"," ","","era","","","",""
"","789","audio-keyboard-response","255","484871","0.0-3.0-1.203","../audio/73-4-masc.mp3"," ","","um","","","",""
"","600","audio-keyboard-response","256","485893","0.0-3.0-1.204","../audio/73-5-masc.mp3"," ","","homem","","","",""
"","651","audio-keyboard-response","257","486907","0.0-3.0-1.205","../audio/73-6-masc.mp3"," ","","muito","","","",""
"","1291","audio-keyboard-response","258","488623","0.0-3.0-1.206","../audio/73-7-masc.mp3"," ","","educado.","","","",""
"","null","html-keyboard-response","259","489899","0.0-3.0-0.207-0.207","<span style= ""font-size:30px; font-family: monospace"">+</span>","null","fixation","","","","",""
"","1080","audio-keyboard-response","260","491388","0.0-3.0-1.207","../audio/74-1-masc.mp3"," ","","Este","","","",""
"","1069","audio-keyboard-response","261","492847","0.0-3.0-1.208","../audio/74-2-masc.mp3"," ","","emprego","","","",""
"","880","audio-keyboard-response","262","494066","0.0-3.0-1.209","../audio/74-3-masc.mp3"," ","","é","","","",""
"","779","audio-keyboard-response","263","495218","0.0-3.0-1.210","../audio/74-4-masc.mp3"," ","","muito","","","",""
"","1429","audio-keyboard-response","264","497013","0.0-3.0-1.211","../audio/74-5-masc.mp3"," ","","cansativo","","","",""
"","869","audio-keyboard-response","265","498249","0.0-3.0-1.212","../audio/74-6-masc.mp3"," ","","a","","","",""
"","1219","audio-keyboard-response","266","499851","0.0-3.0-1.213","../audio/74-7-masc.mp3"," ","","longo","","","",""
"","2019","audio-keyboard-response","267","502260","0.0-3.0-1.214","../audio/74-8-masc.mp3"," ","","prazo.","","","",""
"","null","html-keyboard-response","268","503523","0.0-3.0-0.215-0.215","<span style= ""font-size:30px; font-family: monospace"">+</span>","null","fixation","","","","",""
"","981","audio-keyboard-response","269","504907","0.0-3.0-1.215","../audio/71-1-fem.mp3"," ","","Minhas","","","",""
"","992","audio-keyboard-response","270","506356","0.0-3.0-1.216","../audio/71-2-fem.mp3"," ","","comidas","","","",""
"","1069","audio-keyboard-response","271","507792","0.0-3.0-1.217","../audio/71-3-fem.mp3"," ","","favoritas","","","",""
"","731","audio-keyboard-response","272","508878","0.0-3.0-1.218","../audio/71-4-fem.mp3"," ","","são","","","",""
"","1139","audio-keyboard-response","273","510420","0.0-3.0-1.219","../audio/71-5-fem.mp3"," ","","morango","","","",""
"","1120","audio-keyboard-response","274","511922","0.0-3.0-1.220","../audio/71-6-fem.mp3"," ","","e","","","",""
"","2320","audio-keyboard-response","275","514586","0.0-3.0-1.221","../audio/71-7-fem.mp3"," ","","uva.","","","",""
"","null","html-keyboard-response","276","515860","0.0-3.0-0.222-0.222","<span style= ""font-size:30px; font-family: monospace"">+</span>","null","fixation","","","","",""
"","1392","audio-keyboard-response","277","517678","0.0-3.0-1.222","../audio/75-1-fem.mp3"," ","","Só","","","",""
"","1240","audio-keyboard-response","278","519306","0.0-3.0-1.223","../audio/75-2-fem.mp3"," ","","existe","","","",""
"","880","audio-keyboard-response","279","520527","0.0-3.0-1.224","../audio/75-3-fem.mp3"," ","","uma","","","",""
"","1000","audio-keyboard-response","280","521931","0.0-3.0-1.225","../audio/75-4-fem.mp3"," ","","pessoa","","","",""
"","1269","audio-keyboard-response","281","523610","0.0-3.0-1.226","../audio/75-5-fem.mp3"," ","","canhota","","","",""
"","1280","audio-keyboard-response","282","525249","0.0-3.0-1.227","../audio/75-6-fem.mp3"," ","","nesta","","","",""
"","1771","audio-keyboard-response","283","527469","0.0-3.0-1.228","../audio/75-7-fem.mp3"," ","","cidade.","","","",""
"","3390","html-keyboard-response","284","531121","0.0-3.0-2.228-0.228","<span style=""font-size:25px; font-family: monospace"">Só existe uma pessoa canhota na cidade?</span>","s","","","Só existe uma pessoa canhota na cidade?","null","exp-sent","false"
"","null","html-keyboard-response","285","532631","0.0-3.0-0.229-0.229","<span style= ""font-size:30px; font-family: monospace"">+</span>","null","fixation","","","","",""
"","691","audio-keyboard-response","286","533714","0.0-3.0-1.229","../audio/37-1-fem.mp3"," ","","Eu","","","",""
"","811","audio-keyboard-response","287","534877","0.0-3.0-1.230","../audio/37-2-fem.mp3"," ","","adoro","","","",""
"","709","audio-keyboard-response","288","535990","0.0-3.0-1.231","../audio/37-3-fem.mp3"," ","","suco","","","",""
"","491","audio-keyboard-response","289","536819","0.0-3.0-1.232","../audio/37-4-fem.mp3"," ","","de","","","",""
"","1248","audio-keyboard-response","290","538446","0.0-3.0-1.233","../audio/37-5-fem.mp3"," ","","manga","","","",""
"","800","audio-keyboard-response","291","539625","0.0-3.0-1.234","../audio/37-6-fem.mp3"," ","","com","","","",""
"","1451","audio-keyboard-response","292","541462","0.0-3.0-1.235","../audio/37-7-fem.mp3"," ","","hortelã.","","","",""
"","null","html-keyboard-response","293","542735","0.0-3.0-0.236-0.236","<span style= ""font-size:30px; font-family: monospace"">+</span>","null","fixation","","","","",""
"","699","audio-keyboard-response","294","544050","0.0-3.0-1.236","../audio/38-1-fem.mp3"," ","","A","","","",""
"","1211","audio-keyboard-response","295","546303","0.0-3.0-1.237","../audio/38-2-fem.mp3"," ","","empresa","","","",""
"","989","audio-keyboard-response","296","548142","0.0-3.0-1.238","../audio/38-3-fem.mp3"," ","","criou","","","",""
"","720","audio-keyboard-response","297","549401","0.0-3.0-1.239","../audio/38-4-fem.mp3"," ","","a","","","",""
"","1299","audio-keyboard-response","298","551326","0.0-3.0-1.240","../audio/38-5-fem.mp3"," ","","patente","","","",""
"","952","audio-keyboard-response","299","552715","0.0-3.0-1.241","../audio/38-6-fem.mp3"," ","","da","","","",""
"","3069","audio-keyboard-response","300","556342","0.0-3.0-1.242","../audio/38-7-fem.mp3"," ","","frigideira.","","","",""
"","null","html-keyboard-response","301","557609","0.0-3.0-0.243-0.243","<span style= ""font-size:30px; font-family: monospace"">+</span>","null","fixation","","","","",""
"","861","audio-keyboard-response","302","559237","0.0-3.0-1.243","../audio/36-1-masc.mp3"," ","","Meu","","","",""
"","1240","audio-keyboard-response","303","560941","0.0-3.0-1.244","../audio/36-2-masc.mp3"," ","","tio","","","",""
"","869","audio-keyboard-response","304","562446","0.0-3.0-1.245","../audio/36-3-masc.mp3"," ","","comprou","","","",""
"","808","audio-keyboard-response","305","563932","0.0-3.0-1.246","../audio/36-4-masc.mp3"," ","","um","","","",""
"","1051","audio-keyboard-response","306","565598","0.0-3.0-1.247","../audio/36-5-masc.mp3"," ","","filtro","","","",""
"","781","audio-keyboard-response","307","566951","0.0-3.0-1.248","../audio/36-6-masc.mp3"," ","","de","","","",""
"","1029","audio-keyboard-response","308","568528","0.0-3.0-1.249","../audio/36-7-masc.mp3"," ","","água","","","",""
"","1141","audio-keyboard-response","309","570278","0.0-3.0-1.250","../audio/36-8-masc.mp3"," ","","hoje","","","",""
"","2168","audio-keyboard-response","310","573093","0.0-3.0-1.251","../audio/36-9-masc.mp3"," ","","cedo.","","","",""
"","null","html-keyboard-response","311","574360","0.0-3.0-0.252-0.252","<span style= ""font-size:30px; font-family: monospace"">+</span>","null","fixation","","","","",""
"","768","audio-keyboard-response","312","576012","0.0-3.0-1.252","../audio/39-1-fem.mp3"," ","","O","","","",""
"","1251","audio-keyboard-response","313","577872","0.0-3.0-1.253","../audio/39-2-fem.mp3"," ","","conselho","","","",""
"","851","audio-keyboard-response","314","579220","0.0-3.0-1.254","../audio/39-3-fem.mp3"," ","","foi","","","",""
"","909","audio-keyboard-response","315","580594","0.0-3.0-1.255","../audio/39-4-fem.mp3"," ","","muito","","","",""
"","779","audio-keyboard-response","316","581807","0.0-3.0-1.256","../audio/39-5-fem.mp3"," ","","útil","","","",""
"","811","audio-keyboard-response","317","583071","0.0-3.0-1.257","../audio/39-6-fem.mp3"," ","","para","","","",""
"","720","audio-keyboard-response","318","584232","0.0-3.0-1.258","../audio/39-7-fem.mp3"," ","","minha","","","",""
"","901","audio-keyboard-response","319","586068","0.0-3.0-1.259","../audio/39-8-fem.mp3"," ","","tia.","","","",""
"","null","html-keyboard-response","320","587346","0.0-3.0-0.260-0.260","<span style= ""font-size:30px; font-family: monospace"">+</span>","null","fixation","","","","",""
"","560","audio-keyboard-response","321","588333","0.0-3.0-1.260","../audio/40-1-fem.mp3"," ","","O","","","",""
"","840","audio-keyboard-response","322","589627","0.0-3.0-1.261","../audio/40-2-fem.mp3"," ","","jogo","","","",""
"","731","audio-keyboard-response","323","590877","0.0-3.0-1.262","../audio/40-3-fem.mp3"," ","","falava","","","",""
"","699","audio-keyboard-response","324","592055","0.0-3.0-1.263","../audio/40-4-fem.mp3"," ","","de","","","",""
"","979","audio-keyboard-response","325","593686","0.0-3.0-1.264","../audio/40-5-fem.mp3"," ","","fantasia","","","",""
"","680","audio-keyboard-response","326","594823","0.0-3.0-1.265","../audio/40-6-fem.mp3"," ","","e","","","",""
"","741","audio-keyboard-response","327","596230","0.0-3.0-1.266","../audio/40-7-fem.mp3"," ","","de","","","",""
"","941","audio-keyboard-response","328","597873","0.0-3.0-1.267","../audio/40-8-fem.mp3"," ","","aventura.","","","",""
"","4339","html-keyboard-response","329","602469","0.0-3.0-2.267-0.267","<span style=""font-size:25px; font-family: monospace"">O jogo tinha fantasia e aventura?</span>","n","","","O jogo tinha fantasia e aventura?","null","exp-sent","false"
"","null","html-keyboard-response","330","604002","0.0-3.0-0.268-0.268","<span style= ""font-size:30px; font-family: monospace"">+</span>","null","fixation","","","","",""
"","2632","audio-keyboard-response","331","607518","0.0-3.0-1.268","../audio/06-1-fem.mp3"," ","","Ouvimos","","","",""
"","859","audio-keyboard-response","332","609169","0.0-3.0-1.269","../audio/06-2-fem.mp3"," ","","a","","","",""
"","899","audio-keyboard-response","333","610502","0.0-3.0-1.270","../audio/06-3-fem.mp3"," ","","fala","","","",""
"","840","audio-keyboard-response","334","611849","0.0-3.0-1.271","../audio/06-4-fem.mp3"," ","","do","","","",""
"","1000","audio-keyboard-response","335","613462","0.0-3.0-1.272","../audio/06-5-fem.mp3"," ","","profeta","","","",""
"","920","audio-keyboard-response","336","614795","0.0-3.0-1.273","../audio/06-6-fem.mp3"," ","","no","","","",""
"","1160","audio-keyboard-response","337","616592","0.0-3.0-1.274","../audio/06-7-fem.mp3"," ","","púlpito","","","",""
"","880","audio-keyboard-response","338","617908","0.0-3.0-1.275","../audio/06-8-fem.mp3"," ","","da","","","",""
"","1440","audio-keyboard-response","339","619981","0.0-3.0-1.276","../audio/06-9-fem.mp3"," ","","igreja.","","","",""
"","null","html-keyboard-response","340","621243","0.0-3.0-0.277-0.277","<span style= ""font-size:30px; font-family: monospace"">+</span>","null","fixation","","","","",""
"","171","audio-keyboard-response","341","622181","0.0-3.0-1.277","../audio/09-1-fem.mp3"," ","","O","","","",""
"","1301","audio-keyboard-response","342","624074","0.0-3.0-1.278","../audio/09-2-fem.mp3"," ","","rapaz","","","",""
"","1171","audio-keyboard-response","343","625741","0.0-3.0-1.279","../audio/09-3-fem.mp3"," ","","limpou","","","",""
"","840","audio-keyboard-response","344","627024","0.0-3.0-1.280","../audio/09-4-fem.mp3"," ","","o","","","",""
"","1192","audio-keyboard-response","345","628720","0.0-3.0-1.281","../audio/09-5-fem.mp3"," ","","terreno","","","",""
"","789","audio-keyboard-response","346","630033","0.0-3.0-1.282","../audio/09-6-fem.mp3"," ","","com","","","",""
"","949","audio-keyboard-response","347","631473","0.0-3.0-1.283","../audio/09-7-fem.mp3"," ","","uma","","","",""
"","1000","audio-keyboard-response","348","632920","0.0-3.0-1.284","../audio/09-8-fem.mp3"," ","","pá.","","","",""
"","null","html-keyboard-response","349","634190","0.0-3.0-0.285-0.285","<span style= ""font-size:30px; font-family: monospace"">+</span>","null","fixation","","","","",""
"","909","audio-keyboard-response","350","635738","0.0-3.0-1.285","../audio/08-1-masc.mp3"," ","","A","","","",""
"","1200","audio-keyboard-response","351","637466","0.0-3.0-1.286","../audio/08-2-masc.mp3"," ","","receita","","","",""
"","941","audio-keyboard-response","352","638998","0.0-3.0-1.287","../audio/08-3-masc.mp3"," ","","pede","","","",""
"","669","audio-keyboard-response","353","640289","0.0-3.0-1.288","../audio/08-4-masc.mp3"," ","","um","","","",""
"","1171","audio-keyboard-response","354","642022","0.0-3.0-1.289","../audio/08-5-masc.mp3"," ","","litro","","","",""
"","680","audio-keyboard-response","355","643155","0.0-3.0-1.290","../audio/08-6-masc.mp3"," ","","de","","","",""
"","989","audio-keyboard-response","356","644809","0.0-3.0-1.291","../audio/08-7-masc.mp3"," ","","leite","","","",""
"","1749","audio-keyboard-response","357","647514","0.0-3.0-1.292","../audio/08-8-masc.mp3"," ","","integral.","","","",""
"","null","html-keyboard-response","358","648784","0.0-3.0-0.293-0.293","<span style= ""font-size:30px; font-family: monospace"">+</span>","null","fixation","","","","",""
"","669","audio-keyboard-response","359","650223","0.0-3.0-1.293","../audio/07-1-masc.mp3"," ","","Meu","","","",""
"","771","audio-keyboard-response","360","651520","0.0-3.0-1.294","../audio/07-2-masc.mp3"," ","","filho","","","",""
"","728","audio-keyboard-response","361","652730","0.0-3.0-1.295","../audio/07-3-masc.mp3"," ","","é","","","",""
"","869","audio-keyboard-response","362","654224","0.0-3.0-1.296","../audio/07-4-masc.mp3"," ","","muito","","","",""
"","1539","audio-keyboard-response","363","656616","0.0-3.0-1.297","../audio/07-5-masc.mp3"," ","","responsável","","","",""
"","920","audio-keyboard-response","364","658412","0.0-3.0-1.298","../audio/07-6-masc.mp3"," ","","nos","","","",""
"","2491","audio-keyboard-response","365","661470","0.0-3.0-1.299","../audio/07-7-masc.mp3"," ","","estudos.","","","",""
"","null","html-keyboard-response","366","662733","0.0-3.0-0.300-0.300","<span style= ""font-size:30px; font-family: monospace"">+</span>","null","fixation","","","","",""
"","800","audio-keyboard-response","367","664242","0.0-3.0-1.300","../audio/10-1-fem.mp3"," ","","O","","","",""
"","1160","audio-keyboard-response","368","666281","0.0-3.0-1.301","../audio/10-2-fem.mp3"," ","","pássaro","","","",""
"","880","audio-keyboard-response","369","667624","0.0-3.0-1.302","../audio/10-3-fem.mp3"," ","","azul","","","",""
"","851","audio-keyboard-response","370","669042","0.0-3.0-1.303","../audio/10-4-fem.mp3"," ","","estava","","","",""
"","749","audio-keyboard-response","371","670267","0.0-3.0-1.304","../audio/10-5-fem.mp3"," ","","vivo","","","",""
"","629","audio-keyboard-response","372","671337","0.0-3.0-1.305","../audio/10-6-fem.mp3"," ","","e","","","",""
"","672","audio-keyboard-response","373","672443","0.0-3.0-1.306","../audio/10-7-fem.mp3"," ","","em","","","",""
"","1469","audio-keyboard-response","374","674576","0.0-3.0-1.307","../audio/10-8-fem.mp3"," ","","segurança.","","","",""
"","4875","html-keyboard-response","375","679715","0.0-3.0-2.307-0.307","<span style=""font-size:25px; font-family: monospace"">O pássaro vermelho estava em segurança?</span>","n","","","O pássaro vermelho estava em segurança?","null","exp-sent","false"
"","null","html-keyboard-response","376","681235","0.0-3.0-0.308-0.308","<span style= ""font-size:30px; font-family: monospace"">+</span>","null","fixation","","","","",""
"","2469","audio-keyboard-response","377","684507","0.0-3.0-1.308","../audio/61-1-fem.mp3"," ","","Aquele","","","",""
"","979","audio-keyboard-response","378","686294","0.0-3.0-1.309","../audio/61-2-fem.mp3"," ","","senhor","","","",""
"","640","audio-keyboard-response","379","687350","0.0-3.0-1.310","../audio/61-3-fem.mp3"," ","","é","","","",""
"","549","audio-keyboard-response","380","688491","0.0-3.0-1.311","../audio/61-4-fem.mp3"," ","","muito","","","",""
"","688","audio-keyboard-response","381","689776","0.0-3.0-1.312","../audio/61-5-fem.mp3"," ","","sovina","","","",""
"","792","audio-keyboard-response","382","691006","0.0-3.0-1.313","../audio/61-6-fem.mp3"," ","","e","","","",""
"","3840","audio-keyboard-response","383","695661","0.0-3.0-1.314","../audio/61-7-fem.mp3"," ","","inflexível.","","","",""
"","null","html-keyboard-response","384","696920","0.0-3.0-0.315-0.315","<span style= ""font-size:30px; font-family: monospace"">+</span>","null","fixation","","","","",""
"","848","audio-keyboard-response","385","698732","0.0-3.0-1.315","../audio/62-1-masc.mp3"," ","","As","","","",""
"","1221","audio-keyboard-response","386","700601","0.0-3.0-1.316","../audio/62-2-masc.mp3"," ","","artesãs","","","",""
"","971","audio-keyboard-response","387","702234","0.0-3.0-1.317","../audio/62-3-masc.mp3"," ","","gostam","","","",""
"","1120","audio-keyboard-response","388","704018","0.0-3.0-1.318","../audio/62-4-masc.mp3"," ","","de","","","",""
"","3099","audio-keyboard-response","389","707777","0.0-3.0-1.319","../audio/62-5-masc.mp3"," ","","maquiagem","","","",""
"","709","audio-keyboard-response","390","710577","0.0-3.0-1.320","../audio/62-6-masc.mp3"," ","","e","","","",""
"","779","audio-keyboard-response","391","711870","0.0-3.0-1.321","../audio/62-7-masc.mp3"," ","","de","","","",""
"","1451","audio-keyboard-response","392","714084","0.0-3.0-1.322","../audio/62-8-masc.mp3"," ","","crochê.","","","",""
"","null","html-keyboard-response","393","715351","0.0-3.0-0.323-0.323","<span style= ""font-size:30px; font-family: monospace"">+</span>","null","fixation","","","","",""
"","672","audio-keyboard-response","394","716920","0.0-3.0-1.323","../audio/64-1-fem.mp3"," ","","O","","","",""
"","811","audio-keyboard-response","395","718150","0.0-3.0-1.324","../audio/64-2-fem.mp3"," ","","dia","","","",""
"","1029","audio-keyboard-response","396","719787","0.0-3.0-1.325","../audio/64-3-fem.mp3"," ","","começou","","","",""
"","619","audio-keyboard-response","397","720948","0.0-3.0-1.326","../audio/64-4-fem.mp3"," ","","com","","","",""
"","1088","audio-keyboard-response","398","722614","0.0-3.0-1.327","../audio/64-5-fem.mp3"," ","","garoa","","","",""
"","731","audio-keyboard-response","399","724626","0.0-3.0-1.328","../audio/64-6-fem.mp3"," ","","gelada","","","",""
"","659","audio-keyboard-response","400","726370","0.0-3.0-1.329","../audio/64-7-fem.mp3"," ","","e","","","",""
"","1440","audio-keyboard-response","401","728512","0.0-3.0-1.330","../audio/64-8-fem.mp3"," ","","leve.","","","",""
"","null","html-keyboard-response","402","729772","0.0-3.0-0.331-0.331","<span style= ""font-size:30px; font-family: monospace"">+</span>","null","fixation","","","","",""
"","699","audio-keyboard-response","403","731666","0.0-3.0-1.331","../audio/63-1-fem.mp3"," ","","A","","","",""
"","829","audio-keyboard-response","404","733222","0.0-3.0-1.332","../audio/63-2-fem.mp3"," ","","chuva","","","",""
"","1160","audio-keyboard-response","405","734838","0.0-3.0-1.333","../audio/63-3-fem.mp3"," ","","entrou","","","",""
"","848","audio-keyboard-response","406","736539","0.0-3.0-1.334","../audio/63-4-fem.mp3"," ","","pela","","","",""
"","1389","audio-keyboard-response","407","738617","0.0-3.0-1.335","../audio/63-5-fem.mp3"," ","","abertura","","","",""
"","840","audio-keyboard-response","408","740302","0.0-3.0-1.336","../audio/63-6-fem.mp3"," ","","na","","","",""
"","4101","audio-keyboard-response","409","745323","0.0-3.0-1.337","../audio/63-7-fem.mp3"," ","","janela.","","","",""
"","null","html-keyboard-response","410","746599","0.0-3.0-0.338-0.338","<span style= ""font-size:30px; font-family: monospace"">+</span>","null","fixation","","","","",""
"","840","audio-keyboard-response","411","748579","0.0-3.0-1.338","../audio/65-1-fem.mp3"," ","","O","","","",""
"","1480","audio-keyboard-response","412","750877","0.0-3.0-1.339","../audio/65-2-fem.mp3"," ","","fantasma","","","",""
"","1240","audio-keyboard-response","413","753091","0.0-3.0-1.340","../audio/65-3-fem.mp3"," ","","veio","","","",""
"","968","audio-keyboard-response","414","754455","0.0-3.0-1.341","../audio/65-4-fem.mp3"," ","","da","","","",""
"","2109","audio-keyboard-response","415","757314","0.0-3.0-1.342","../audio/65-5-fem.mp3"," ","","escuridão","","","",""
"","699","audio-keyboard-response","416","758698","0.0-3.0-1.343","../audio/65-6-fem.mp3"," ","","do","","","",""
"","1960","audio-keyboard-response","417","761212","0.0-3.0-1.344","../audio/65-7-fem.mp3"," ","","armário.","","","",""
"","3023","html-keyboard-response","418","764504","0.0-3.0-2.344-0.344","<span style=""font-size:25px; font-family: monospace"">O fantasma veio da escuridão do armário?</span>","s","","","O fantasma veio da escuridão do armário?","null","exp-sent","false"
"","null","html-keyboard-response","419","766026","0.0-3.0-0.345-0.345","<span style= ""font-size:30px; font-family: monospace"">+</span>","null","fixation","","","","",""
"","209440","audio-keyboard-response","420","977170","0.0-3.0-1.345","../audio/56-1-fem.mp3"," ","","A","","","",""
"","1408","audio-keyboard-response","421","979217","0.0-3.0-1.346","../audio/56-2-fem.mp3"," ","","moça","","","",""
"","1120","audio-keyboard-response","422","980682","0.0-3.0-1.347","../audio/56-3-fem.mp3"," ","","foi","","","",""
"","749","audio-keyboard-response","423","981743","0.0-3.0-1.348","../audio/56-4-fem.mp3"," ","","à","","","",""
"","960","audio-keyboard-response","424","983055","0.0-3.0-1.349","../audio/56-5-fem.mp3"," ","","agência","","","",""
"","1288","audio-keyboard-response","425","984736","0.0-3.0-1.350","../audio/56-6-fem.mp3"," ","","bancária","","","",""
"","1019","audio-keyboard-response","426","986171","0.0-3.0-1.351","../audio/56-7-fem.mp3"," ","","ontem","","","",""
"","851","audio-keyboard-response","427","987363","0.0-3.0-1.352","../audio/56-8-fem.mp3"," ","","de","","","",""
"","1360","audio-keyboard-response","428","989068","0.0-3.0-1.353","../audio/56-9-fem.mp3"," ","","tarde.","","","",""
"","null","html-keyboard-response","429","990332","0.0-3.0-0.354-0.354","<span style= ""font-size:30px; font-family: monospace"">+</span>","null","fixation","","","","",""
"","800","audio-keyboard-response","430","991527","0.0-3.0-1.354","../audio/59-1-fem.mp3"," ","","O","","","",""
"","1240","audio-keyboard-response","431","993131","0.0-3.0-1.355","../audio/59-2-fem.mp3"," ","","carteiro","","","",""
"","931","audio-keyboard-response","432","994428","0.0-3.0-1.356","../audio/59-3-fem.mp3"," ","","fez","","","",""
"","920","audio-keyboard-response","433","995667","0.0-3.0-1.357","../audio/59-4-fem.mp3"," ","","uma","","","",""
"","1501","audio-keyboard-response","434","997604","0.0-3.0-1.358","../audio/59-5-fem.mp3"," ","","tentativa","","","",""
"","691","audio-keyboard-response","435","998644","0.0-3.0-1.359","../audio/59-6-fem.mp3"," ","","de","","","",""
"","1960","audio-keyboard-response","436","1001019","0.0-3.0-1.360","../audio/59-7-fem.mp3"," ","","entrega.","","","",""
"","null","html-keyboard-response","437","1002283","0.0-3.0-0.361-0.361","<span style= ""font-size:30px; font-family: monospace"">+</span>","null","fixation","","","","",""
"","979","audio-keyboard-response","438","1003665","0.0-3.0-1.361","../audio/58-1-masc.mp3"," ","","Havia","","","",""
"","1011","audio-keyboard-response","439","1005076","0.0-3.0-1.362","../audio/58-2-masc.mp3"," ","","apenas","","","",""
"","741","audio-keyboard-response","440","1006206","0.0-3.0-1.363","../audio/58-3-masc.mp3"," ","","um","","","",""
"","1011","audio-keyboard-response","441","1007562","0.0-3.0-1.364","../audio/58-4-masc.mp3"," ","","último","","","",""
"","1011","audio-keyboard-response","442","1008913","0.0-3.0-1.365","../audio/58-5-masc.mp3"," ","","herdeiro","","","",""
"","912","audio-keyboard-response","443","1010168","0.0-3.0-1.366","../audio/58-6-masc.mp3"," ","","do","","","",""
"","1909","audio-keyboard-response","444","1012424","0.0-3.0-1.367","../audio/58-7-masc.mp3"," ","","dinheiro.","","","",""
"","null","html-keyboard-response","445","1013689","0.0-3.0-0.368-0.368","<span style= ""font-size:30px; font-family: monospace"">+</span>","null","fixation","","","","",""
"","680","audio-keyboard-response","446","1014772","0.0-3.0-1.368","../audio/57-1-fem.mp3"," ","","O","","","",""
"","1091","audio-keyboard-response","447","1016317","0.0-3.0-1.369","../audio/57-2-fem.mp3"," ","","capitão","","","",""
"","760","audio-keyboard-response","448","1017448","0.0-3.0-1.370","../audio/57-3-fem.mp3"," ","","deu","","","",""
"","840","audio-keyboard-response","449","1018584","0.0-3.0-1.371","../audio/57-4-fem.mp3"," ","","uma","","","",""
"","1429","audio-keyboard-response","450","1020376","0.0-3.0-1.372","../audio/57-5-fem.mp3"," ","","instrução","","","",""
"","869","audio-keyboard-response","451","1021596","0.0-3.0-1.373","../audio/57-6-fem.mp3"," ","","para","","","",""
"","1088","audio-keyboard-response","452","1023058","0.0-3.0-1.374","../audio/57-7-fem.mp3"," ","","as","","","",""
"","1971","audio-keyboard-response","453","1025407","0.0-3.0-1.375","../audio/57-8-fem.mp3"," ","","pessoas.","","","",""
"","null","html-keyboard-response","454","1026676","0.0-3.0-0.376-0.376","<span style= ""font-size:30px; font-family: monospace"">+</span>","null","fixation","","","","",""
"","619","audio-keyboard-response","455","1027705","0.0-3.0-1.376","../audio/60-1-fem.mp3"," ","","Ondas","","","",""
"","859","audio-keyboard-response","456","1028900","0.0-3.0-1.377","../audio/60-2-fem.mp3"," ","","têm","","","",""
"","920","audio-keyboard-response","457","1030161","0.0-3.0-1.378","../audio/60-3-fem.mp3"," ","","um","","","",""
"","1291","audio-keyboard-response","458","1031803","0.0-3.0-1.379","../audio/60-4-fem.mp3"," ","","impacto","","","",""
"","1760","audio-keyboard-response","459","1033937","0.0-3.0-1.380","../audio/60-5-fem.mp3"," ","","destrutivo","","","",""
"","891","audio-keyboard-response","460","1035209","0.0-3.0-1.381","../audio/60-6-fem.mp3"," ","","no","","","",""
"","1789","audio-keyboard-response","461","1037437","0.0-3.0-1.382","../audio/60-7-fem.mp3"," ","","litoral.","","","",""
"","5762","html-keyboard-response","462","1043455","0.0-3.0-2.382-0.382","<span style=""font-size:25px; font-family: monospace"">Ondas têm um impacto destrutivo?</span>","s","","","Ondas têm um impacto destrutivo?","null","exp-sent","false"
"","null","html-keyboard-response","463","1045004","0.0-3.0-0.383-0.383","<span style= ""font-size:30px; font-family: monospace"">+</span>","null","fixation","","","","",""
"","1699","audio-keyboard-response","464","1047179","0.0-3.0-1.383","../audio/21-1-fem.mp3"," ","","Precisamos","","","",""
"","760","audio-keyboard-response","465","1048333","0.0-3.0-1.384","../audio/21-2-fem.mp3"," ","","de","","","",""
"","880","audio-keyboard-response","466","1049623","0.0-3.0-1.385","../audio/21-3-fem.mp3"," ","","paciência","","","",""
"","691","audio-keyboard-response","467","1050677","0.0-3.0-1.386","../audio/21-4-fem.mp3"," ","","e","","","",""
"","771","audio-keyboard-response","468","1051833","0.0-3.0-1.387","../audio/21-5-fem.mp3"," ","","bondade","","","",""
"","701","audio-keyboard-response","469","1052889","0.0-3.0-1.388","../audio/21-6-fem.mp3"," ","","para","","","",""
"","680","audio-keyboard-response","470","1053904","0.0-3.0-1.389","../audio/21-7-fem.mp3"," ","","um","","","",""
"","640","audio-keyboard-response","471","1054905","0.0-3.0-1.390","../audio/21-8-fem.mp3"," ","","mundo","","","",""
"","688","audio-keyboard-response","472","1056013","0.0-3.0-1.391","../audio/21-9-fem.mp3"," ","","melhor.","","","",""
"","null","html-keyboard-response","473","1057275","0.0-3.0-0.392-0.392","<span style= ""font-size:30px; font-family: monospace"">+</span>","null","fixation","","","","",""
"","61","audio-keyboard-response","474","1057794","0.0-3.0-1.392","../audio/23-1-fem.mp3"," ","","Português","","","",""
"","789","audio-keyboard-response","475","1058906","0.0-3.0-1.393","../audio/23-2-fem.mp3"," ","","é","","","",""
"","749","audio-keyboard-response","476","1059997","0.0-3.0-1.394","../audio/23-3-fem.mp3"," ","","um","","","",""
"","979","audio-keyboard-response","477","1061388","0.0-3.0-1.395","../audio/23-4-fem.mp3"," ","","assunto","","","",""
"","1040","audio-keyboard-response","478","1062837","0.0-3.0-1.396","../audio/23-5-fem.mp3"," ","","elementar","","","",""
"","832","audio-keyboard-response","479","1064047","0.0-3.0-1.397","../audio/23-6-fem.mp3"," ","","para","","","",""
"","731","audio-keyboard-response","480","1065161","0.0-3.0-1.398","../audio/23-7-fem.mp3"," ","","os","","","",""
"","2091","audio-keyboard-response","481","1067691","0.0-3.0-1.399","../audio/23-8-fem.mp3"," ","","alunos.","","","",""
"","null","html-keyboard-response","482","1068948","0.0-3.0-0.400-0.400","<span style= ""font-size:30px; font-family: monospace"">+</span>","null","fixation","","","","",""
"","829","audio-keyboard-response","483","1070180","0.0-3.0-1.400","../audio/22-1-fem.mp3"," ","","Eu","","","",""
"","891","audio-keyboard-response","484","1071487","0.0-3.0-1.401","../audio/22-2-fem.mp3"," ","","detesto","","","",""
"","989","audio-keyboard-response","485","1072856","0.0-3.0-1.402","../audio/22-3-fem.mp3"," ","","fumaça","","","",""
"","760","audio-keyboard-response","486","1073958","0.0-3.0-1.403","../audio/22-4-fem.mp3"," ","","de","","","",""
"","1128","audio-keyboard-response","487","1075455","0.0-3.0-1.404","../audio/22-5-fem.mp3"," ","","cachimbo","","","",""
"","632","audio-keyboard-response","488","1076525","0.0-3.0-1.405","../audio/22-6-fem.mp3"," ","","e","","","",""
"","659","audio-keyboard-response","489","1077536","0.0-3.0-1.406","../audio/22-7-fem.mp3"," ","","de","","","",""
"","2309","audio-keyboard-response","490","1080238","0.0-3.0-1.407","../audio/22-8-fem.mp3"," ","","cigarro.","","","",""
"","null","html-keyboard-response","491","1081514","0.0-3.0-0.408-0.408","<span style= ""font-size:30px; font-family: monospace"">+</span>","null","fixation","","","","",""
"","611","audio-keyboard-response","492","1082531","0.0-3.0-1.408","../audio/24-1-masc.mp3"," ","","As","","","",""
"","1000","audio-keyboard-response","493","1083886","0.0-3.0-1.409","../audio/24-2-masc.mp3"," ","","crianças","","","",""
"","819","audio-keyboard-response","494","1085069","0.0-3.0-1.410","../audio/24-3-masc.mp3"," ","","vão","","","",""
"","851","audio-keyboard-response","495","1086329","0.0-3.0-1.411","../audio/24-4-masc.mp3"," ","","ao","","","",""
"","1051","audio-keyboard-response","496","1087749","0.0-3.0-1.412","../audio/24-5-masc.mp3"," ","","cinema","","","",""
"","901","audio-keyboard-response","497","1089008","0.0-3.0-1.413","../audio/24-6-masc.mp3"," ","","mais","","","",""
"","2128","audio-keyboard-response","498","1091501","0.0-3.0-1.414","../audio/24-7-masc.mp3"," ","","tarde.","","","",""
"","null","html-keyboard-response","499","1092774","0.0-3.0-0.415-0.415","<span style= ""font-size:30px; font-family: monospace"">+</span>","null","fixation","","","","",""
"","792","audio-keyboard-response","500","1093971","0.0-3.0-1.415","../audio/25-1-masc.mp3"," ","","Ela","","","",""
"","768","audio-keyboard-response","501","1095094","0.0-3.0-1.416","../audio/25-2-masc.mp3"," ","","faz","","","",""
"","901","audio-keyboard-response","502","1096400","0.0-3.0-1.417","../audio/25-3-masc.mp3"," ","","tanto","","","",""
"","1029","audio-keyboard-response","503","1097775","0.0-3.0-1.418","../audio/25-4-masc.mp3"," ","","cabelo","","","",""
"","909","audio-keyboard-response","504","1099029","0.0-3.0-1.419","../audio/25-5-masc.mp3"," ","","liso","","","",""
"","992","audio-keyboard-response","505","1100369","0.0-3.0-1.420","../audio/25-6-masc.mp3"," ","","quanto","","","",""
"","2429","audio-keyboard-response","506","1103152","0.0-3.0-1.421","../audio/25-7-masc.mp3"," ","","cacheado.","","","",""
"","2518","html-keyboard-response","507","1105929","0.0-3.0-2.421-0.421","<span style=""font-size:25px; font-family: monospace"">Ela só faz cabelo cacheado?</span>","n","","","Ela só faz cabelo cacheado?","null","exp-sent","false"
"","null","html-keyboard-response","508","1107437","0.0-3.0-0.422-0.422","<span style= ""font-size:30px; font-family: monospace"">+</span>","null","fixation","","","","",""
"","48120","audio-keyboard-response","509","1155993","0.0-3.0-1.422","../audio/54-1-fem.mp3"," ","","Estou","","","",""
"","691","audio-keyboard-response","510","1157223","0.0-3.0-1.423","../audio/54-2-fem.mp3"," ","","com","","","",""
"","1000","audio-keyboard-response","511","1158567","0.0-3.0-1.424","../audio/54-3-fem.mp3"," ","","medo","","","",""
"","1160","audio-keyboard-response","512","1160096","0.0-3.0-1.425","../audio/54-4-fem.mp3"," ","","da","","","",""
"","1389","audio-keyboard-response","513","1161872","0.0-3.0-1.426","../audio/54-5-fem.mp3"," ","","atual","","","",""
"","840","audio-keyboard-response","514","1163150","0.0-3.0-1.427","../audio/54-6-fem.mp3"," ","","organização","","","",""
"","1261","audio-keyboard-response","515","1164759","0.0-3.0-1.428","../audio/54-7-fem.mp3"," ","","do","","","",""
"","1331","audio-keyboard-response","516","1166468","0.0-3.0-1.429","../audio/54-8-fem.mp3"," ","","país.","","","",""
"","null","html-keyboard-response","517","1167730","0.0-3.0-0.430-0.430","<span style= ""font-size:30px; font-family: monospace"">+</span>","null","fixation","","","","",""
"","1491","audio-keyboard-response","518","1169667","0.0-3.0-1.430","../audio/53-1-fem.mp3"," ","","O","","","",""
"","1291","audio-keyboard-response","519","1171319","0.0-3.0-1.431","../audio/53-2-fem.mp3"," ","","médico","","","",""
"","1560","audio-keyboard-response","520","1173232","0.0-3.0-1.432","../audio/53-3-fem.mp3"," ","","foi","","","",""
"","1891","audio-keyboard-response","521","1175540","0.0-3.0-1.433","../audio/53-4-fem.mp3"," ","","bastante","","","",""
"","1171","audio-keyboard-response","522","1177150","0.0-3.0-1.434","../audio/53-5-fem.mp3"," ","","preciso","","","",""
"","1920","audio-keyboard-response","523","1179431","0.0-3.0-1.435","../audio/53-6-fem.mp3"," ","","durante","","","",""
"","1720","audio-keyboard-response","524","1181544","0.0-3.0-1.436","../audio/53-7-fem.mp3"," ","","a","","","",""
"","1032","audio-keyboard-response","525","1183041","0.0-3.0-1.437","../audio/53-8-fem.mp3"," ","","cirurgia.","","","",""
"","null","html-keyboard-response","526","1184320","0.0-3.0-0.438-0.438","<span style= ""font-size:30px; font-family: monospace"">+</span>","null","fixation","","","","",""
"","2000","audio-keyboard-response","527","1186677","0.0-3.0-1.438","../audio/51-1-masc.mp3"," ","","Suco","","","",""
"","1168","audio-keyboard-response","528","1188207","0.0-3.0-1.439","../audio/51-2-masc.mp3"," ","","de","","","",""
"","1421","audio-keyboard-response","529","1190040","0.0-3.0-1.440","../audio/51-3-masc.mp3"," ","","acerola","","","",""
"","4211","audio-keyboard-response","530","1194591","0.0-3.0-1.441","../audio/51-4-masc.mp3"," ","","é","","","",""
"","3360","audio-keyboard-response","531","1198360","0.0-3.0-1.442","../audio/51-5-masc.mp3"," ","","azedo","","","",""
"","1320","audio-keyboard-response","532","1200071","0.0-3.0-1.443","../audio/51-6-masc.mp3"," ","","e","","","",""
"","3259","audio-keyboard-response","533","1203694","0.0-3.0-1.444","../audio/51-7-masc.mp3"," ","","até","","","",""
"","1501","audio-keyboard-response","534","1205599","0.0-3.0-1.445","../audio/51-8-masc.mp3"," ","","barato.","","","",""
"","null","html-keyboard-response","535","1206873","0.0-3.0-0.446-0.446","<span style= ""font-size:30px; font-family: monospace"">+</span>","null","fixation","","","","",""
"","7400","audio-keyboard-response","536","1214685","0.0-3.0-1.446","../audio/52-1-fem.mp3"," ","","Às","","","",""
"","1200","audio-keyboard-response","537","1216285","0.0-3.0-1.447","../audio/52-2-fem.mp3"," ","","vezes","","","",""
"","899","audio-keyboard-response","538","1217489","0.0-3.0-1.448","../audio/52-3-fem.mp3"," ","","eu","","","",""
"","779","audio-keyboard-response","539","1218617","0.0-3.0-1.449","../audio/52-4-fem.mp3"," ","","tenho","","","",""
"","1179","audio-keyboard-response","540","1220169","0.0-3.0-1.450","../audio/52-5-fem.mp3"," ","","azia","","","",""
"","1048","audio-keyboard-response","541","1221566","0.0-3.0-1.451","../audio/52-6-fem.mp3"," ","","depois","","","",""
"","800","audio-keyboard-response","542","1222677","0.0-3.0-1.452","../audio/52-7-fem.mp3"," ","","da","","","",""
"","1360","audio-keyboard-response","543","1224401","0.0-3.0-1.453","../audio/52-8-fem.mp3"," ","","janta.","","","",""
"","null","html-keyboard-response","544","1225685","0.0-3.0-0.454-0.454","<span style= ""font-size:30px; font-family: monospace"">+</span>","null","fixation","","","","",""
"","200","audio-keyboard-response","545","1226301","0.0-3.0-1.454","../audio/55-1-fem.mp3"," ","","O","","","",""
"","1040","audio-keyboard-response","546","1227709","0.0-3.0-1.455","../audio/55-2-fem.mp3"," ","","insulto","","","",""
"","909","audio-keyboard-response","547","1229072","0.0-3.0-1.456","../audio/55-3-fem.mp3"," ","","recente","","","",""
"","939","audio-keyboard-response","548","1230340","0.0-3.0-1.457","../audio/55-4-fem.mp3"," ","","causou","","","",""
"","1440","audio-keyboard-response","549","1232141","0.0-3.0-1.458","../audio/55-5-fem.mp3"," ","","indignação","","","",""
"","739","audio-keyboard-response","550","1233226","0.0-3.0-1.459","../audio/55-6-fem.mp3"," ","","em","","","",""
"","1261","audio-keyboard-response","551","1234837","0.0-3.0-1.460","../audio/55-7-fem.mp3"," ","","todos.","","","",""
"","6995","html-keyboard-response","552","1242091","0.0-3.0-2.460-0.460","<span style=""font-size:25px; font-family: monospace"">O insulto causou calmaria?</span>","n","","","O insulto causou calmaria?","null","exp-sent","false"
"","null","html-keyboard-response","553","1243603","0.0-3.0-0.461-0.461","<span style= ""font-size:30px; font-family: monospace"">+</span>","null","fixation","","","","",""
"","9701","audio-keyboard-response","554","1253724","0.0-3.0-1.461","../audio/29-1-fem.mp3"," ","","Hoje","","","",""
"","779","audio-keyboard-response","555","1254942","0.0-3.0-1.462","../audio/29-2-fem.mp3"," ","","vamos","","","",""
"","811","audio-keyboard-response","556","1256192","0.0-3.0-1.463","../audio/29-3-fem.mp3"," ","","fazer","","","",""
"","880","audio-keyboard-response","557","1257409","0.0-3.0-1.464","../audio/29-4-fem.mp3"," ","","uma","","","",""
"","920","audio-keyboard-response","558","1258729","0.0-3.0-1.465","../audio/29-5-fem.mp3"," ","","atividade","","","",""
"","829","audio-keyboard-response","559","1259938","0.0-3.0-1.466","../audio/29-6-fem.mp3"," ","","sobre","","","",""
"","720","audio-keyboard-response","560","1261019","0.0-3.0-1.467","../audio/29-7-fem.mp3"," ","","fauna","","","",""
"","899","audio-keyboard-response","561","1262290","0.0-3.0-1.468","../audio/29-8-fem.mp3"," ","","marinha.","","","",""
"","null","html-keyboard-response","562","1263561","0.0-3.0-0.469-0.469","<span style= ""font-size:30px; font-family: monospace"">+</span>","null","fixation","","","","",""
"","781","audio-keyboard-response","563","1264748","0.0-3.0-1.469","../audio/27-1-fem.mp3"," ","","O","","","",""
"","920","audio-keyboard-response","564","1266050","0.0-3.0-1.470","../audio/27-2-fem.mp3"," ","","dinheiro","","","",""
"","931","audio-keyboard-response","565","1267386","0.0-3.0-1.471","../audio/27-3-fem.mp3"," ","","chegou","","","",""
"","800","audio-keyboard-response","566","1268530","0.0-3.0-1.472","../audio/27-4-fem.mp3"," ","","à","","","",""
"","880","audio-keyboard-response","567","1269825","0.0-3.0-1.473","../audio/27-5-fem.mp3"," ","","elite","","","",""
"","880","audio-keyboard-response","568","1271067","0.0-3.0-1.474","../audio/27-6-fem.mp3"," ","","deste","","","",""
"","1360","audio-keyboard-response","569","1272805","0.0-3.0-1.475","../audio/27-7-fem.mp3"," ","","país.","","","",""
"","null","html-keyboard-response","570","1274064","0.0-3.0-0.476-0.476","<span style= ""font-size:30px; font-family: monospace"">+</span>","null","fixation","","","","",""
"","640","audio-keyboard-response","571","1275110","0.0-3.0-1.476","../audio/28-1-fem.mp3"," ","","O","","","",""
"","821","audio-keyboard-response","572","1276324","0.0-3.0-1.477","../audio/28-2-fem.mp3"," ","","time","","","",""
"","800","audio-keyboard-response","573","1277469","0.0-3.0-1.478","../audio/28-3-fem.mp3"," ","","quer","","","",""
"","720","audio-keyboard-response","574","1278506","0.0-3.0-1.479","../audio/28-4-fem.mp3"," ","","a","","","",""
"","1149","audio-keyboard-response","575","1280021","0.0-3.0-1.480","../audio/28-5-fem.mp3"," ","","vitória","","","",""
"","749","audio-keyboard-response","576","1281133","0.0-3.0-1.481","../audio/28-6-fem.mp3"," ","","no","","","",""
"","701","audio-keyboard-response","577","1282195","0.0-3.0-1.482","../audio/28-7-fem.mp3"," ","","jogo","","","",""
"","669","audio-keyboard-response","578","1283236","0.0-3.0-1.483","../audio/28-8-fem.mp3"," ","","de","","","",""
"","1051","audio-keyboard-response","579","1284624","0.0-3.0-1.484","../audio/28-9-fem.mp3"," ","","vôlei.","","","",""
"","null","html-keyboard-response","580","1285890","0.0-3.0-0.485-0.485","<span style= ""font-size:30px; font-family: monospace"">+</span>","null","fixation","","","","",""
"","851","audio-keyboard-response","581","1287204","0.0-3.0-1.485","../audio/26-1-masc.mp3"," ","","Amanhã","","","",""
"","731","audio-keyboard-response","582","1288300","0.0-3.0-1.486","../audio/26-2-masc.mp3"," ","","temos","","","",""
"","760","audio-keyboard-response","583","1289435","0.0-3.0-1.487","../audio/26-3-masc.mp3"," ","","festa","","","",""
"","709","audio-keyboard-response","584","1290504","0.0-3.0-1.488","../audio/26-4-masc.mp3"," ","","na","","","",""
"","909","audio-keyboard-response","585","1291796","0.0-3.0-1.489","../audio/26-5-masc.mp3"," ","","piscina","","","",""
"","560","audio-keyboard-response","586","1292716","0.0-3.0-1.490","../audio/26-6-masc.mp3"," ","","o","","","",""
"","800","audio-keyboard-response","587","1293894","0.0-3.0-1.491","../audio/26-7-masc.mp3"," ","","dia","","","",""
"","731","audio-keyboard-response","588","1294948","0.0-3.0-1.492","../audio/26-8-masc.mp3"," ","","todo.","","","",""
"","null","html-keyboard-response","589","1296215","0.0-3.0-0.493-0.493","<span style= ""font-size:30px; font-family: monospace"">+</span>","null","fixation","","","","",""
"","629","audio-keyboard-response","590","1297234","0.0-3.0-1.493","../audio/30-1-masc.mp3"," ","","O","","","",""
"","891","audio-keyboard-response","591","1298500","0.0-3.0-1.494","../audio/30-2-masc.mp3"," ","","funcionário","","","",""
"","821","audio-keyboard-response","592","1299676","0.0-3.0-1.495","../audio/30-3-masc.mp3"," ","","entregou","","","",""
"","629","audio-keyboard-response","593","1300701","0.0-3.0-1.496","../audio/30-4-masc.mp3"," ","","o","","","",""
"","859","audio-keyboard-response","594","1301941","0.0-3.0-1.497","../audio/30-5-masc.mp3"," ","","restante","","","",""
"","781","audio-keyboard-response","595","1303076","0.0-3.0-1.498","../audio/30-6-masc.mp3"," ","","do","","","",""
"","920","audio-keyboard-response","596","1304344","0.0-3.0-1.499","../audio/30-7-masc.mp3"," ","","dinheiro.","","","",""
"","3227","html-keyboard-response","597","1307833","0.0-3.0-2.499-0.499","<span style=""font-size:25px; font-family: monospace"">O funcionário entregou o contrato?</span>","n","","","O funcionário entregou o contrato?","null","exp-sent","false"
"","null","html-keyboard-response","598","1309341","0.0-3.0-0.500-0.500","<span style= ""font-size:30px; font-family: monospace"">+</span>","null","fixation","","","","",""
"","4269","audio-keyboard-response","599","1314014","0.0-3.0-1.500","../audio/02-2-fem.mp3"," ","","Havia","","","",""
"","920","audio-keyboard-response","600","1315201","0.0-3.0-1.501","../audio/02-2-fem.mp3"," ","","um","","","",""
"","771","audio-keyboard-response","601","1316467","0.0-3.0-1.502","../audio/02-3-fem.mp3"," ","","cheiro","","","",""
"","691","audio-keyboard-response","602","1317481","0.0-3.0-1.503","../audio/02-4-fem.mp3"," ","","de","","","",""
"","1269","audio-keyboard-response","603","1319134","0.0-3.0-1.504","../audio/02-5-fem.mp3"," ","","gasolina","","","",""
"","731","audio-keyboard-response","604","1320229","0.0-3.0-1.505","../audio/02-6-fem.mp3"," ","","na","","","",""
"","1379","audio-keyboard-response","605","1321991","0.0-3.0-1.506","../audio/02-7-fem.mp3"," ","","garagem.","","","",""
"","null","html-keyboard-response","606","1323252","0.0-3.0-0.507-0.507","<span style= ""font-size:30px; font-family: monospace"">+</span>","null","fixation","","","","",""
"","749","audio-keyboard-response","607","1324389","0.0-3.0-1.507","../audio/01-1-fem.mp3"," ","","O","","","",""
"","979","audio-keyboard-response","608","1325704","0.0-3.0-1.508","../audio/01-2-fem.mp3"," ","","menino","","","",""
"","981","audio-keyboard-response","609","1327084","0.0-3.0-1.509","../audio/01-3-fem.mp3"," ","","derrubou","","","",""
"","672","audio-keyboard-response","610","1328083","0.0-3.0-1.510","../audio/01-4-fem.mp3"," ","","a","","","",""
"","869","audio-keyboard-response","611","1329343","0.0-3.0-1.511","../audio/01-5-fem.mp3"," ","","guitarra","","","",""
"","728","audio-keyboard-response","612","1330416","0.0-3.0-1.512","../audio/01-6-fem.mp3"," ","","no","","","",""
"","1000","audio-keyboard-response","613","1331738","0.0-3.0-1.513","../audio/01-7-fem.mp3"," ","","chão.","","","",""
"","null","html-keyboard-response","614","1333008","0.0-3.0-0.514-0.514","<span style= ""font-size:30px; font-family: monospace"">+</span>","null","fixation","","","","",""
"","181","audio-keyboard-response","615","1333632","0.0-3.0-1.514","../audio/04-1-fem.mp3"," ","","Duzentos","","","",""
"","829","audio-keyboard-response","616","1334814","0.0-3.0-1.515","../audio/04-2-fem.mp3"," ","","carros","","","",""
"","971","audio-keyboard-response","617","1336182","0.0-3.0-1.516","../audio/04-3-fem.mp3"," ","","passaram","","","",""
"","749","audio-keyboard-response","618","1337359","0.0-3.0-1.517","../audio/04-4-fem.mp3"," ","","pela","","","",""
"","851","audio-keyboard-response","619","1338566","0.0-3.0-1.518","../audio/04-5-fem.mp3"," ","","ponte","","","",""
"","811","audio-keyboard-response","620","1339724","0.0-3.0-1.519","../audio/04-6-fem.mp3"," ","","hoje","","","",""
"","669","audio-keyboard-response","621","1340743","0.0-3.0-1.520","../audio/04-7-fem.mp3"," ","","de","","","",""
"","1752","audio-keyboard-response","622","1342807","0.0-3.0-1.521","../audio/04-8-fem.mp3"," ","","tarde.","","","",""
"","null","html-keyboard-response","623","1344072","0.0-3.0-0.522-0.522","<span style= ""font-size:30px; font-family: monospace"">+</span>","null","fixation","","","","",""
"","261","audio-keyboard-response","624","1344714","0.0-3.0-1.522","../audio/03-1-fem.mp3"," ","","O","","","",""
"","1080","audio-keyboard-response","625","1346138","0.0-3.0-1.523","../audio/03-2-fem.mp3"," ","","coelho","","","",""
"","880","audio-keyboard-response","626","1347477","0.0-3.0-1.524","../audio/03-3-fem.mp3"," ","","foi","","","",""
"","1080","audio-keyboard-response","627","1348989","0.0-3.0-1.525","../audio/03-4-fem.mp3"," ","","bastante","","","",""
"","949","audio-keyboard-response","628","1350294","0.0-3.0-1.526","../audio/03-5-fem.mp3"," ","","dócil","","","",""
"","680","audio-keyboard-response","629","1351373","0.0-3.0-1.527","../audio/03-6-fem.mp3"," ","","com","","","",""
"","901","audio-keyboard-response","630","1352633","0.0-3.0-1.528","../audio/03-7-fem.mp3"," ","","as","","","",""
"","1349","audio-keyboard-response","631","1354389","0.0-3.0-1.529","../audio/03-8-fem.mp3"," ","","crianças.","","","",""
"","null","html-keyboard-response","632","1355654","0.0-3.0-0.530-0.530","<span style= ""font-size:30px; font-family: monospace"">+</span>","null","fixation","","","","",""
"","6520","audio-keyboard-response","633","1362815","0.0-3.0-1.530","../audio/05-1-fem.mp3"," ","","A","","","",""
"","1560","audio-keyboard-response","634","1364824","0.0-3.0-1.531","../audio/05-2-fem.mp3"," ","","vendedora","","","",""
"","1040","audio-keyboard-response","635","1366250","0.0-3.0-1.532","../audio/05-3-fem.mp3"," ","","ajudou","","","",""
"","720","audio-keyboard-response","636","1367390","0.0-3.0-1.533","../audio/05-4-fem.mp3"," ","","um","","","",""
"","869","audio-keyboard-response","637","1368624","0.0-3.0-1.534","../audio/05-5-fem.mp3"," ","","turista","","","",""
"","771","audio-keyboard-response","638","1369714","0.0-3.0-1.535","../audio/05-6-fem.mp3"," ","","na","","","",""
"","1920","audio-keyboard-response","639","1371963","0.0-3.0-1.536","../audio/05-7-fem.mp3"," ","","loja.","","","",""
"","4033","html-keyboard-response","640","1376258","0.0-3.0-2.536-0.536","<span style=""font-size:25px; font-family: monospace"">A vendedora ajudou um turista?</span>","s","","","A vendedora ajudou um turista?","null","exp-sent","false"
"","null","html-keyboard-response","641","1377779","0.0-3.0-0.537-0.537","<span style= ""font-size:30px; font-family: monospace"">+</span>","null","fixation","","","","",""
"","760","audio-keyboard-response","642","1378965","0.0-3.0-1.537","../audio/14-1-masc.mp3"," ","","O","","","",""
"","1059","audio-keyboard-response","643","1380376","0.0-3.0-1.538","../audio/14-2-masc.mp3"," ","","cachorro","","","",""
"","749","audio-keyboard-response","644","1381455","0.0-3.0-1.539","../audio/14-3-masc.mp3"," ","","é","","","",""
"","771","audio-keyboard-response","645","1382609","0.0-3.0-1.540","../audio/14-4-masc.mp3"," ","","muito","","","",""
"","781","audio-keyboard-response","646","1383771","0.0-3.0-1.541","../audio/14-5-masc.mp3"," ","","fiel","","","",""
"","589","audio-keyboard-response","647","1384709","0.0-3.0-1.542","../audio/14-6-masc.mp3"," ","","a","","","",""
"","739","audio-keyboard-response","648","1385789","0.0-3.0-1.543","../audio/14-7-masc.mp3"," ","","seus","","","",""
"","949","audio-keyboard-response","649","1387093","0.0-3.0-1.544","../audio/14-8-masc.mp3"," ","","donos.","","","",""
"","null","html-keyboard-response","650","1388359","0.0-3.0-0.545-0.545","<span style= ""font-size:30px; font-family: monospace"">+</span>","null","fixation","","","","",""
"","811","audio-keyboard-response","651","1389525","0.0-3.0-1.545","../audio/11-1-fem.mp3"," ","","Elas","","","",""
"","771","audio-keyboard-response","652","1390686","0.0-3.0-1.546","../audio/11-2-fem.mp3"," ","","gostam","","","",""
"","859","audio-keyboard-response","653","1391905","0.0-3.0-1.547","../audio/11-3-fem.mp3"," ","","muito","","","",""
"","629","audio-keyboard-response","654","1392880","0.0-3.0-1.548","../audio/11-4-fem.mp3"," ","","de","","","",""
"","960","audio-keyboard-response","655","1394239","0.0-3.0-1.549","../audio/11-5-fem.mp3"," ","","aritmética","","","",""
"","789","audio-keyboard-response","656","1395374","0.0-3.0-1.550","../audio/11-6-fem.mp3"," ","","e","","","",""
"","661","audio-keyboard-response","657","1396491","0.0-3.0-1.551","../audio/11-7-fem.mp3"," ","","de","","","",""
"","1179","audio-keyboard-response","658","1398053","0.0-3.0-1.552","../audio/11-8-fem.mp3"," ","","leitura.","","","",""
"","null","html-keyboard-response","659","1399319","0.0-3.0-0.553-0.553","<span style= ""font-size:30px; font-family: monospace"">+</span>","null","fixation","","","","",""
"","259","audio-keyboard-response","660","1399976","0.0-3.0-1.553","../audio/12-1-masc.mp3"," ","","O","","","",""
"","749","audio-keyboard-response","661","1401081","0.0-3.0-1.554","../audio/12-2-masc.mp3"," ","","dia","","","",""
"","779","audio-keyboard-response","662","1402223","0.0-3.0-1.555","../audio/12-3-masc.mp3"," ","","estava","","","",""
"","859","audio-keyboard-response","663","1403455","0.0-3.0-1.556","../audio/12-4-masc.mp3"," ","","quente,","","","",""
"","829","audio-keyboard-response","664","1404635","0.0-3.0-1.557","../audio/12-5-masc.mp3"," ","","tranquilo","","","",""
"","691","audio-keyboard-response","665","1405643","0.0-3.0-1.558","../audio/12-6-masc.mp3"," ","","e","","","",""
"","2021","audio-keyboard-response","666","1408048","0.0-3.0-1.559","../audio/12-7-masc.mp3"," ","","ensolarado.","","","",""
"","null","html-keyboard-response","667","1409323","0.0-3.0-0.560-0.560","<span style= ""font-size:30px; font-family: monospace"">+</span>","null","fixation","","","","",""
"","789","audio-keyboard-response","668","1410495","0.0-3.0-1.560","../audio/13-1-fem.mp3"," ","","Para","","","",""
"","811","audio-keyboard-response","669","1411647","0.0-3.0-1.561","../audio/13-2-fem.mp3"," ","","mim","","","",""
"","600","audio-keyboard-response","670","1412607","0.0-3.0-1.562","../audio/13-3-fem.mp3"," ","","é","","","",""
"","691","audio-keyboard-response","671","1413630","0.0-3.0-1.563","../audio/13-4-fem.mp3"," ","","muito","","","",""
"","720","audio-keyboard-response","672","1414719","0.0-3.0-1.564","../audio/13-5-fem.mp3"," ","","difícil","","","",""
"","891","audio-keyboard-response","673","1415969","0.0-3.0-1.565","../audio/13-6-fem.mp3"," ","","acordar","","","",""
"","1251","audio-keyboard-response","674","1417627","0.0-3.0-1.566","../audio/13-7-fem.mp3"," ","","cedo.","","","",""
"","null","html-keyboard-response","675","1418887","0.0-3.0-0.567-0.567","<span style= ""font-size:30px; font-family: monospace"">+</span>","null","fixation","","","","",""
"","680","audio-keyboard-response","676","1419931","0.0-3.0-1.567","../audio/15-1-fem.mp3"," ","","Meu","","","",""
"","701","audio-keyboard-response","677","1420965","0.0-3.0-1.568","../audio/15-2-fem.mp3"," ","","primo","","","",""
"","608","audio-keyboard-response","678","1421896","0.0-3.0-1.569","../audio/15-3-fem.mp3"," ","","é","","","",""
"","800","audio-keyboard-response","679","1423039","0.0-3.0-1.570","../audio/15-4-fem.mp3"," ","","um","","","",""
"","960","audio-keyboard-response","680","1424394","0.0-3.0-1.571","../audio/15-5-fem.mp3"," ","","grande","","","",""
"","669","audio-keyboard-response","681","1425439","0.0-3.0-1.572","../audio/15-6-fem.mp3"," ","","vendedor","","","",""
"","848","audio-keyboard-response","682","1426693","0.0-3.0-1.573","../audio/15-7-fem.mp3"," ","","de","","","",""
"","1192","audio-keyboard-response","683","1428248","0.0-3.0-1.574","../audio/15-8-fem.mp3"," ","","carros.","","","",""
"","4853","html-keyboard-response","684","1433364","0.0-3.0-2.574-0.574","<span style=""font-size:25px; font-family: monospace"">O primo é um vendedor de carros?</span>","s","","","O primo é um vendedor de carros?","null","exp-sent","false"
"","null","html-keyboard-response","685","1434894","0.0-3.0-0.575-0.575","<span style= ""font-size:30px; font-family: monospace"">+</span>","null","fixation","","","","",""
"","709","audio-keyboard-response","686","1435976","0.0-3.0-1.575","../audio/68-1-masc.mp3"," ","","Meu","","","",""
"","731","audio-keyboard-response","687","1437105","0.0-3.0-1.576","../audio/68-2-masc.mp3"," ","","irmão","","","",""
"","771","audio-keyboard-response","688","1438237","0.0-3.0-1.577","../audio/68-3-masc.mp3"," ","","teve","","","",""
"","720","audio-keyboard-response","689","1439296","0.0-3.0-1.578","../audio/68-4-masc.mp3"," ","","um","","","",""
"","539","audio-keyboard-response","690","1440232","0.0-3.0-1.579","../audio/68-5-masc.mp3"," ","","noivado","","","",""
"","648","audio-keyboard-response","691","1441256","0.0-3.0-1.580","../audio/68-6-masc.mp3"," ","","longo","","","",""
"","669","audio-keyboard-response","692","1442254","0.0-3.0-1.581","../audio/68-7-masc.mp3"," ","","e","","","",""
"","840","audio-keyboard-response","693","1443456","0.0-3.0-1.582","../audio/68-8-masc.mp3"," ","","maravilhoso.","","","",""
"","null","html-keyboard-response","694","1444719","0.0-3.0-0.583-0.583","<span style= ""font-size:30px; font-family: monospace"">+</span>","null","fixation","","","","",""
"","59","audio-keyboard-response","695","1445214","0.0-3.0-1.583","../audio/66-1-fem.mp3"," ","","Não","","","",""
"","781","audio-keyboard-response","696","1446437","0.0-3.0-1.584","../audio/66-2-fem.mp3"," ","","gosto","","","",""
"","669","audio-keyboard-response","697","1447438","0.0-3.0-1.585","../audio/66-3-fem.mp3"," ","","de","","","",""
"","800","audio-keyboard-response","698","1448600","0.0-3.0-1.586","../audio/66-4-fem.mp3"," ","","gente","","","",""
"","1040","audio-keyboard-response","699","1450045","0.0-3.0-1.587","../audio/66-5-fem.mp3"," ","","egoísta","","","",""
"","832","audio-keyboard-response","700","1451210","0.0-3.0-1.588","../audio/66-6-fem.mp3"," ","","nem","","","",""
"","1680","audio-keyboard-response","701","1453291","0.0-3.0-1.589","../audio/66-7-fem.mp3"," ","","chata.","","","",""
"","null","html-keyboard-response","702","1454556","0.0-3.0-0.590-0.590","<span style= ""font-size:30px; font-family: monospace"">+</span>","null","fixation","","","","",""
"","869","audio-keyboard-response","703","1455861","0.0-3.0-1.590","../audio/67-1-masc.mp3"," ","","Minha","","","",""
"","712","audio-keyboard-response","704","1456926","0.0-3.0-1.591","../audio/67-2-masc.mp3"," ","","tia","","","",""
"","800","audio-keyboard-response","705","1458097","0.0-3.0-1.592","../audio/67-3-masc.mp3"," ","","comprou","","","",""
"","621","audio-keyboard-response","706","1459076","0.0-3.0-1.593","../audio/67-4-masc.mp3"," ","","um","","","",""
"","851","audio-keyboard-response","707","1460280","0.0-3.0-1.594","../audio/67-5-masc.mp3"," ","","cordão","","","",""
"","659","audio-keyboard-response","708","1461312","0.0-3.0-1.595","../audio/67-6-masc.mp3"," ","","para","","","",""
"","669","audio-keyboard-response","709","1462305","0.0-3.0-1.596","../audio/67-7-masc.mp3"," ","","o","","","",""
"","1469","audio-keyboard-response","710","1464115","0.0-3.0-1.597","../audio/67-8-masc.mp3"," ","","varal.","","","",""
"","null","html-keyboard-response","711","1465375","0.0-3.0-0.598-0.598","<span style= ""font-size:30px; font-family: monospace"">+</span>","null","fixation","","","","",""
"","600","audio-keyboard-response","712","1466367","0.0-3.0-1.598","../audio/69-1-masc.mp3"," ","","A","","","",""
"","800","audio-keyboard-response","713","1467500","0.0-3.0-1.599","../audio/69-2-masc.mp3"," ","","loja","","","",""
"","851","audio-keyboard-response","714","1468713","0.0-3.0-1.600","../audio/69-3-masc.mp3"," ","","recebeu","","","",""
"","701","audio-keyboard-response","715","1469808","0.0-3.0-1.601","../audio/69-4-masc.mp3"," ","","uma","","","",""
"","789","audio-keyboard-response","716","1471002","0.0-3.0-1.602","../audio/69-5-masc.mp3"," ","","poltrona","","","",""
"","651","audio-keyboard-response","717","1472001","0.0-3.0-1.603","../audio/69-6-masc.mp3"," ","","de","","","",""
"","792","audio-keyboard-response","718","1473170","0.0-3.0-1.604","../audio/69-7-masc.mp3"," ","","couro","","","",""
"","1451","audio-keyboard-response","719","1474991","0.0-3.0-1.605","../audio/69-8-masc.mp3"," ","","preto.","","","",""
"","null","html-keyboard-response","720","1476265","0.0-3.0-0.606-0.606","<span style= ""font-size:30px; font-family: monospace"">+</span>","null","fixation","","","","",""
"","11","audio-keyboard-response","721","1476693","0.0-3.0-1.606","../audio/70-1-fem.mp3"," ","","O","","","",""
"","771","audio-keyboard-response","722","1477811","0.0-3.0-1.607","../audio/70-2-fem.mp3"," ","","meu","","","",""
"","848","audio-keyboard-response","723","1479018","0.0-3.0-1.608","../audio/70-3-fem.mp3"," ","","filho","","","",""
"","811","audio-keyboard-response","724","1480194","0.0-3.0-1.609","../audio/70-4-fem.mp3"," ","","tem","","","",""
"","1029","audio-keyboard-response","725","1481576","0.0-3.0-1.610","../audio/70-5-fem.mp3"," ","","medo","","","",""
"","851","audio-keyboard-response","726","1482746","0.0-3.0-1.611","../audio/70-6-fem.mp3"," ","","de","","","",""
"","1059","audio-keyboard-response","727","1484146","0.0-3.0-1.612","../audio/70-7-fem.mp3"," ","","enguia","","","",""
"","789","audio-keyboard-response","728","1485274","0.0-3.0-1.613","../audio/70-8-fem.mp3"," ","","e","","","",""
"","989","audio-keyboard-response","729","1486681","0.0-3.0-1.614","../audio/70-9-fem.mp3"," ","","beija-flor.","","","",""
"","3731","html-keyboard-response","730","1490671","0.0-3.0-2.614-0.614","<span style=""font-size:25px; font-family: monospace"">O filho tem medo de tigre?</span>","n","","","O filho tem medo de tigre?","null","exp-sent","false"
"[{""page_index"":0,""viewing_time"":3298}]","3300","instructions","731","1494488","0.0-4.0","","","","","","","",""
