[
	{
		"view_history": [
			{
				"page_index": 0,
				"viewing_time": 3641
			}
		],
		"rt": 3642,
		"trial_type": "instructions",
		"trial_index": 0,
		"time_elapsed": 3651,
		"internal_node_id": "0.0-0.0"
	},
	{
		"rt": 13958,
		"response": {
			"age": "28"
		},
		"trial_type": "survey-text",
		"trial_index": 1,
		"time_elapsed": 17741,
		"internal_node_id": "0.0-1.0"
	},
	{
		"rt": 5135,
		"response": {
			"sex": "Masculino"
		},
		"question_order": [
			0
		],
		"trial_type": "survey-multi-choice",
		"trial_index": 2,
		"time_elapsed": 22999,
		"internal_node_id": "0.0-2.0"
	},
	{
		"rt": 18416,
		"response": {
			"own_schooling": "Ensino Médio completo"
		},
		"question_order": [
			0
		],
		"trial_type": "survey-multi-choice",
		"trial_index": 3,
		"time_elapsed": 41523,
		"internal_node_id": "0.0-3.0"
	},
	{
		"rt": 12524,
		"response": {
			"mother_schooling": "Ensino Fundamental"
		},
		"question_order": [
			0
		],
		"trial_type": "survey-multi-choice",
		"trial_index": 4,
		"time_elapsed": 54157,
		"internal_node_id": "0.0-4.0"
	},
	{
		"rt": 8497,
		"response": {
			"father_schooling": "Ensino Fundamental"
		},
		"question_order": [
			0
		],
		"trial_type": "survey-multi-choice",
		"trial_index": 5,
		"time_elapsed": 62761,
		"internal_node_id": "0.0-5.0"
	},
	{
		"rt": 324161,
		"response": {
			"language_0": "crioulo",
			"listening_0": "bebe",
			"speaking_0": "3 anos",
			"reading_0": "6 anos",
			"writing_0": "6 anos",
			"language_1": "françês",
			"listening_1": "3 anos",
			"speaking_1": "10 anos",
			"reading_1": "7 anos",
			"writing_1": "7 anos",
			"language_2": "portugues",
			"listening_2": "20 anos",
			"speaking_2": "23 anos",
			"reading_2": "23 anos",
			"writing_2": "23 anos",
			"language_3": "",
			"listening_3": "",
			"speaking_3": "",
			"reading_3": "",
			"writing_3": ""
		},
		"trial_type": "survey-html-form",
		"trial_index": 6,
		"time_elapsed": 387033,
		"internal_node_id": "0.0-6.0"
	},
	{
		"rt": 224849,
		"response": {
			"language_3": "",
			"listening_3": "",
			"speaking_3": "",
			"reading_3": "",
			"writing_3": "",
			"language_1": "françês",
			"listening_1": "desde bebe",
			"speaking_1": "6, 7, 8 anos",
			"reading_1": "6 anos",
			"writing_1": "8 anos",
			"language_2": "portugues",
			"listening_2": "1 ano",
			"speaking_2": "1 ano",
			"reading_2": "1 ano",
			"writing_2": "1 ano"
		},
		"trial_type": "survey-html-form",
		"trial_index": 7,
		"time_elapsed": 611990,
		"internal_node_id": "0.0-7.0"
	},
	{
		"rt": 5752,
		"response": {
			"country_of_origin": "Haiti"
		},
		"trial_type": "survey-text",
		"trial_index": 8,
		"time_elapsed": 617881,
		"internal_node_id": "0.0-8.0"
	},
	{
		"rt": 4868,
		"response": {
			"country_of_residence": "Haiti\n"
		},
		"trial_type": "survey-text",
		"trial_index": 9,
		"time_elapsed": 622860,
		"internal_node_id": "0.0-9.0"
	},
	{
		"rt": 120725,
		"response": {
			"country_0": "Brazil",
			"duration_0": "60 ",
			"language_0": "portugues",
			"frequency_0": "7",
			"country_1": "",
			"duration_1": "",
			"language_1": "",
			"frequency_1": "",
			"country_2": "",
			"duration_2": "",
			"language_2": "",
			"frequency_2": "",
			"country_3": "",
			"duration_3": "",
			"language_3": "",
			"frequency_3": ""
		},
		"trial_type": "survey-html-form",
		"trial_index": 10,
		"time_elapsed": 743701,
		"internal_node_id": "0.0-10.0"
	},
	{
		"rt": 39235,
		"response": {
			"language_0": "frances",
			"context_0": "2",
			"language_1": "portugues",
			"context_1": "1 e 2",
			"language_2": "",
			"context_2": "",
			"language_3": "",
			"context_3": ""
		},
		"trial_type": "survey-html-form",
		"trial_index": 11,
		"time_elapsed": 783042,
		"internal_node_id": "0.0-11.0"
	},
	{
		"rt": 90175,
		"response": {
			"language_0": "crioulo",
			"home_0": "x",
			"friends_0": "",
			"school_0": "",
			"work_0": "",
			"computer_0": "",
			"games_0": "",
			"language_1": "frances",
			"home_1": "",
			"friends_1": "",
			"school_1": "x",
			"work_1": "",
			"computer_1": "",
			"games_1": "",
			"language_2": "portugues",
			"home_2": "",
			"friends_2": "x",
			"school_2": "",
			"work_2": "",
			"computer_2": "",
			"games_2": "",
			"language_3": "ingles",
			"home_3": "",
			"friends_3": "",
			"school_3": "x",
			"work_3": "",
			"computer_3": "",
			"games_3": ""
		},
		"trial_type": "survey-html-form",
		"trial_index": 12,
		"time_elapsed": 873336,
		"internal_node_id": "0.0-12.0"
	},
	{
		"rt": 18236,
		"response": {
			"new_languages": 2
		},
		"question_order": [
			0
		],
		"trial_type": "survey-likert",
		"trial_index": 13,
		"time_elapsed": 891680,
		"internal_node_id": "0.0-13.0"
	},
	{
		"rt": 134468,
		"response": {
			"language_0": "crioulo",
			"listen_0": "6",
			"talk_0": "6",
			"read_0": "6",
			"write_0": "6",
			"language_1": "frances",
			"listen_1": "7",
			"talk_1": "5",
			"read_1": "6",
			"write_1": "5",
			"language_2": "português",
			"listen_2": "6",
			"talk_2": "5",
			"read_2": "5",
			"write_2": "4",
			"language_3": "",
			"listen_3": "",
			"talk_3": "",
			"read_3": "",
			"write_3": ""
		},
		"trial_type": "survey-html-form",
		"trial_index": 14,
		"time_elapsed": 1026263,
		"internal_node_id": "0.0-14.0"
	},
	{
		"rt": 199870,
		"response": {
			"language_0": "crioulo",
			"tv_0": "",
			"radio_0": "",
			"read_fun_0": "6",
			"read_work_0": "",
			"write_0": "",
			"social_nets_0": "7",
			"language_1": "frances",
			"tv_1": "3",
			"radio_1": "",
			"read_fun_1": "",
			"read_work_1": "1",
			"write_1": "",
			"social_nets_1": "5",
			"language_2": "portugues",
			"tv_2": "1",
			"radio_2": "",
			"read_fun_2": "2",
			"read_work_2": "8",
			"write_2": "10",
			"social_nets_2": "6",
			"language_3": "",
			"tv_3": "",
			"radio_3": "",
			"read_fun_3": "",
			"read_work_3": "",
			"write_3": "",
			"social_nets_3": ""
		},
		"trial_type": "survey-html-form",
		"trial_index": 15,
		"time_elapsed": 1226245,
		"internal_node_id": "0.0-15.0"
	},
	{
		"rt": 149864,
		"response": {
			"language_0": "crioulo",
			"family_0": "6",
			"friends_0": "10",
			"work_0": "3",
			"school_0": "0",
			"language_1": "frances",
			"family_1": "1",
			"friends_1": "2",
			"work_1": "1",
			"school_1": "0",
			"language_2": "portugues",
			"family_2": "4",
			"friends_2": "8",
			"work_2": "4",
			"school_2": "10",
			"language_3": "",
			"family_3": "",
			"friends_3": "",
			"work_3": "",
			"school_3": ""
		},
		"trial_type": "survey-html-form",
		"trial_index": 16,
		"time_elapsed": 1376217,
		"internal_node_id": "0.0-16.0"
	},
	{
		"rt": 158134,
		"response": {
			"language_0_0": "crioulo",
			"language_0_1": "crioulo",
			"language_0_2": "portugues",
			"language_0_3": "crioulo",
			"language_1_0": "portugues",
			"language_1_1": "portugues",
			"language_1_2": "português",
			"language_1_3": "português",
			"language_2_0": "português",
			"language_2_1": "português",
			"language_2_2": "português",
			"language_2_3": "português",
			"language_3_0": "português",
			"language_3_1": "português",
			"language_3_2": "português",
			"language_3_3": "português"
		},
		"trial_type": "survey-html-form",
		"trial_index": 17,
		"time_elapsed": 1534458,
		"internal_node_id": "0.0-17.0"
	},
	{
		"rt": 162671,
		"response": {
			"language_2": "portugues",
			"think_2": "5",
			"selftalk_2": "6",
			"emotions_2": "6",
			"dream_2": "4",
			"math_2": "4",
			"remember_2": "5",
			"pray_2": "2",
			"language_1": "frances",
			"think_1": "3",
			"selftalk_1": "3",
			"emotions_1": "2",
			"dream_1": "2",
			"math_1": "2",
			"remember_1": "2",
			"pray_1": "5",
			"language_3": "",
			"think_3": "",
			"selftalk_3": "",
			"emotions_3": "",
			"dream_3": "",
			"math_3": "",
			"remember_3": "",
			"pray_3": ""
		},
		"trial_type": "survey-html-form",
		"trial_index": 18,
		"time_elapsed": 1697247,
		"internal_node_id": "0.0-18.0"
	},
	{
		"rt": 7745,
		"response": {
			"dificuldade_visao_ou_audicao": "Não"
		},
		"question_order": [
			0
		],
		"trial_type": "survey-multi-choice",
		"trial_index": 19,
		"time_elapsed": 1705105,
		"internal_node_id": "0.0-19.0"
	},
	{
		"rt": 11316,
		"response": {
			"detalhes_dificuldades_audicao_ou_visao": ""
		},
		"trial_type": "survey-text",
		"trial_index": 20,
		"time_elapsed": 1716659,
		"internal_node_id": "0.0-20.0"
	},
	{
		"rt": 106817,
		"response": {
			"additional_info": "acho que dominio mais o portugês que fraçes que é uma das minhas linguais principais do meu país e português eu só aprendi a partir de 23 anos. "
		},
		"trial_type": "survey-text",
		"trial_index": 21,
		"time_elapsed": 1823595,
		"internal_node_id": "0.0-21.0"
	}
]