[
	{
		"view_history": [
			{
				"page_index": 0,
				"viewing_time": 45706
			}
		],
		"rt": 45712,
		"trial_type": "instructions",
		"trial_index": 0,
		"time_elapsed": 45848,
		"internal_node_id": "0.0-0.0"
	},
	{
		"rt": null,
		"stimulus": "+",
		"response": null,
		"trial_type": "html-keyboard-response",
		"trial_index": 1,
		"time_elapsed": 46470,
		"internal_node_id": "0.0-1.0-0.0"
	},
	{
		"rt": 4444,
		"stimulus": "daja",
		"response": "n",
		"class": "null",
		"status": "noncog",
		"answer": "pseudo",
		"correct": "N",
		"trial": "prac",
		"letters": "null",
		"trial_type": "html-keyboard-response",
		"trial_index": 2,
		"time_elapsed": 50919,
		"internal_node_id": "0.0-1.0-1.0"
	},
	{
		"rt": null,
		"stimulus": "+",
		"response": null,
		"trial_type": "html-keyboard-response",
		"trial_index": 3,
		"time_elapsed": 51423,
		"internal_node_id": "0.0-1.0-0.1"
	},
	{
		"rt": 2727,
		"stimulus": "órgão",
		"response": "s",
		"class": "null",
		"status": "noncog",
		"answer": "word",
		"correct": "S",
		"trial": "prac",
		"letters": "null",
		"trial_type": "html-keyboard-response",
		"trial_index": 4,
		"time_elapsed": 54154,
		"internal_node_id": "0.0-1.0-1.1"
	},
	{
		"rt": null,
		"stimulus": "+",
		"response": null,
		"trial_type": "html-keyboard-response",
		"trial_index": 5,
		"time_elapsed": 54659,
		"internal_node_id": "0.0-1.0-0.2"
	},
	{
		"rt": 3142,
		"stimulus": "oliva",
		"response": "s",
		"class": "null",
		"status": "cog",
		"answer": "word",
		"correct": "S",
		"trial": "prac",
		"letters": "null",
		"trial_type": "html-keyboard-response",
		"trial_index": 6,
		"time_elapsed": 57807,
		"internal_node_id": "0.0-1.0-1.2"
	},
	{
		"rt": null,
		"stimulus": "+",
		"response": null,
		"trial_type": "html-keyboard-response",
		"trial_index": 7,
		"time_elapsed": 58310,
		"internal_node_id": "0.0-1.0-0.3"
	},
	{
		"rt": 2813,
		"stimulus": "plibar",
		"response": "n",
		"class": "null",
		"status": "noncog",
		"answer": "pseudo",
		"correct": "N",
		"trial": "prac",
		"letters": "null",
		"trial_type": "html-keyboard-response",
		"trial_index": 8,
		"time_elapsed": 61124,
		"internal_node_id": "0.0-1.0-1.3"
	},
	{
		"rt": null,
		"stimulus": "+",
		"response": null,
		"trial_type": "html-keyboard-response",
		"trial_index": 9,
		"time_elapsed": 61629,
		"internal_node_id": "0.0-1.0-0.4"
	},
	{
		"rt": 3412,
		"stimulus": "crante",
		"response": "n",
		"class": "null",
		"status": "noncog",
		"answer": "pseudo",
		"correct": "N",
		"trial": "prac",
		"letters": "null",
		"trial_type": "html-keyboard-response",
		"trial_index": 10,
		"time_elapsed": 65043,
		"internal_node_id": "0.0-1.0-1.4"
	},
	{
		"rt": null,
		"stimulus": "+",
		"response": null,
		"trial_type": "html-keyboard-response",
		"trial_index": 11,
		"time_elapsed": 65554,
		"internal_node_id": "0.0-1.0-0.5"
	},
	{
		"rt": 3208,
		"stimulus": "calmaria",
		"response": "s",
		"class": "null",
		"status": "noncog",
		"answer": "word",
		"correct": "S",
		"trial": "prac",
		"letters": "null",
		"trial_type": "html-keyboard-response",
		"trial_index": 12,
		"time_elapsed": 68764,
		"internal_node_id": "0.0-1.0-1.5"
	},
	{
		"rt": null,
		"stimulus": "+",
		"response": null,
		"trial_type": "html-keyboard-response",
		"trial_index": 13,
		"time_elapsed": 69268,
		"internal_node_id": "0.0-1.0-0.6"
	},
	{
		"rt": 2846,
		"stimulus": "chassi",
		"response": "n",
		"class": "null",
		"status": "cog",
		"answer": "word",
		"correct": "S",
		"trial": "prac",
		"letters": "null",
		"trial_type": "html-keyboard-response",
		"trial_index": 14,
		"time_elapsed": 72115,
		"internal_node_id": "0.0-1.0-1.6"
	},
	{
		"view_history": [
			{
				"page_index": 0,
				"viewing_time": 2582
			}
		],
		"rt": 2582,
		"trial_type": "instructions",
		"trial_index": 15,
		"time_elapsed": 74698,
		"internal_node_id": "0.0-2.0"
	},
	{
		"rt": null,
		"stimulus": "+",
		"response": null,
		"trial_type": "html-keyboard-response",
		"trial_index": 16,
		"time_elapsed": 75316,
		"internal_node_id": "0.0-3.0-0.0"
	},
	{
		"rt": 4894,
		"stimulus": "crolatário",
		"response": "n",
		"class": "null",
		"status": "noncog",
		"answer": "pseudo",
		"correct": "N",
		"trial": "exp",
		"letters": "null",
		"trial_type": "html-keyboard-response",
		"trial_index": 17,
		"time_elapsed": 80211,
		"internal_node_id": "0.0-3.0-1.0"
	},
	{
		"rt": null,
		"stimulus": "+",
		"response": null,
		"trial_type": "html-keyboard-response",
		"trial_index": 18,
		"time_elapsed": 80716,
		"internal_node_id": "0.0-3.0-0.1"
	},
	{
		"rt": 4894,
		"stimulus": "bibarconato",
		"response": "n",
		"class": "null",
		"status": "noncog",
		"answer": "pseudo",
		"correct": "N",
		"trial": "exp",
		"letters": "null",
		"trial_type": "html-keyboard-response",
		"trial_index": 19,
		"time_elapsed": 85612,
		"internal_node_id": "0.0-3.0-1.1"
	},
	{
		"rt": null,
		"stimulus": "+",
		"response": null,
		"trial_type": "html-keyboard-response",
		"trial_index": 20,
		"time_elapsed": 86116,
		"internal_node_id": "0.0-3.0-0.2"
	},
	{
		"rt": 3867,
		"stimulus": "âgnulo",
		"response": "n",
		"class": "null",
		"status": "noncog",
		"answer": "pseudo",
		"correct": "N",
		"trial": "exp",
		"letters": "null",
		"trial_type": "html-keyboard-response",
		"trial_index": 21,
		"time_elapsed": 89986,
		"internal_node_id": "0.0-3.0-1.2"
	},
	{
		"rt": null,
		"stimulus": "+",
		"response": null,
		"trial_type": "html-keyboard-response",
		"trial_index": 22,
		"time_elapsed": 90488,
		"internal_node_id": "0.0-3.0-0.3"
	},
	{
		"rt": 1946,
		"stimulus": "montanha",
		"response": "s",
		"class": "n",
		"status": "cog",
		"answer": "word",
		"correct": "S",
		"trial": "exp",
		"letters": "8",
		"trial_type": "html-keyboard-response",
		"trial_index": 23,
		"time_elapsed": 92436,
		"internal_node_id": "0.0-3.0-1.3"
	},
	{
		"rt": null,
		"stimulus": "+",
		"response": null,
		"trial_type": "html-keyboard-response",
		"trial_index": 24,
		"time_elapsed": 92938,
		"internal_node_id": "0.0-3.0-0.4"
	},
	{
		"rt": 1523,
		"stimulus": "planalto",
		"response": "s",
		"class": "n",
		"status": "cog",
		"answer": "word",
		"correct": "S",
		"trial": "exp",
		"letters": "8",
		"trial_type": "html-keyboard-response",
		"trial_index": 25,
		"time_elapsed": 94463,
		"internal_node_id": "0.0-3.0-1.4"
	},
	{
		"rt": null,
		"stimulus": "+",
		"response": null,
		"trial_type": "html-keyboard-response",
		"trial_index": 26,
		"time_elapsed": 94966,
		"internal_node_id": "0.0-3.0-0.5"
	},
	{
		"rt": 1948,
		"stimulus": "pritas",
		"response": "s",
		"class": "null",
		"status": "noncog",
		"answer": "pseudo",
		"correct": "N",
		"trial": "exp",
		"letters": "null",
		"trial_type": "html-keyboard-response",
		"trial_index": 27,
		"time_elapsed": 96916,
		"internal_node_id": "0.0-3.0-1.5"
	},
	{
		"rt": null,
		"stimulus": "+",
		"response": null,
		"trial_type": "html-keyboard-response",
		"trial_index": 28,
		"time_elapsed": 97419,
		"internal_node_id": "0.0-3.0-0.6"
	},
	{
		"rt": 961,
		"stimulus": "verdade",
		"response": "s",
		"class": "n",
		"status": "cog",
		"answer": "word",
		"correct": "S",
		"trial": "exp",
		"letters": "7",
		"trial_type": "html-keyboard-response",
		"trial_index": 29,
		"time_elapsed": 98381,
		"internal_node_id": "0.0-3.0-1.6"
	},
	{
		"rt": null,
		"stimulus": "+",
		"response": null,
		"trial_type": "html-keyboard-response",
		"trial_index": 30,
		"time_elapsed": 98920,
		"internal_node_id": "0.0-3.0-0.7"
	},
	{
		"rt": 1532,
		"stimulus": "jastor",
		"response": "s",
		"class": "null",
		"status": "noncog",
		"answer": "pseudo",
		"correct": "N",
		"trial": "exp",
		"letters": "null",
		"trial_type": "html-keyboard-response",
		"trial_index": 31,
		"time_elapsed": 100453,
		"internal_node_id": "0.0-3.0-1.7"
	},
	{
		"rt": null,
		"stimulus": "+",
		"response": null,
		"trial_type": "html-keyboard-response",
		"trial_index": 32,
		"time_elapsed": 100962,
		"internal_node_id": "0.0-3.0-0.8"
	},
	{
		"rt": 1983,
		"stimulus": "cenada",
		"response": "s",
		"class": "null",
		"status": "noncog",
		"answer": "pseudo",
		"correct": "N",
		"trial": "exp",
		"letters": "null",
		"trial_type": "html-keyboard-response",
		"trial_index": 33,
		"time_elapsed": 102948,
		"internal_node_id": "0.0-3.0-1.8"
	},
	{
		"rt": null,
		"stimulus": "+",
		"response": null,
		"trial_type": "html-keyboard-response",
		"trial_index": 34,
		"time_elapsed": 103455,
		"internal_node_id": "0.0-3.0-0.9"
	},
	{
		"rt": 3997,
		"stimulus": "atitro",
		"response": "n",
		"class": "null",
		"status": "noncog",
		"answer": "pseudo",
		"correct": "N",
		"trial": "exp",
		"letters": "null",
		"trial_type": "html-keyboard-response",
		"trial_index": 35,
		"time_elapsed": 107453,
		"internal_node_id": "0.0-3.0-1.9"
	},
	{
		"rt": null,
		"stimulus": "+",
		"response": null,
		"trial_type": "html-keyboard-response",
		"trial_index": 36,
		"time_elapsed": 107958,
		"internal_node_id": "0.0-3.0-0.10"
	},
	{
		"rt": 1629,
		"stimulus": "lorfaz",
		"response": "n",
		"class": "null",
		"status": "noncog",
		"answer": "pseudo",
		"correct": "N",
		"trial": "exp",
		"letters": "null",
		"trial_type": "html-keyboard-response",
		"trial_index": 37,
		"time_elapsed": 109590,
		"internal_node_id": "0.0-3.0-1.10"
	},
	{
		"rt": null,
		"stimulus": "+",
		"response": null,
		"trial_type": "html-keyboard-response",
		"trial_index": 38,
		"time_elapsed": 110092,
		"internal_node_id": "0.0-3.0-0.11"
	},
	{
		"rt": 1128,
		"stimulus": "perdão",
		"response": "s",
		"class": "n",
		"status": "noncog",
		"answer": "word",
		"correct": "S",
		"trial": "exp",
		"letters": "6",
		"trial_type": "html-keyboard-response",
		"trial_index": 39,
		"time_elapsed": 111223,
		"internal_node_id": "0.0-3.0-1.11"
	},
	{
		"rt": null,
		"stimulus": "+",
		"response": null,
		"trial_type": "html-keyboard-response",
		"trial_index": 40,
		"time_elapsed": 111725,
		"internal_node_id": "0.0-3.0-0.12"
	},
	{
		"rt": 1031,
		"stimulus": "tinta",
		"response": "s",
		"class": "n",
		"status": "cog",
		"answer": "word",
		"correct": "S",
		"trial": "exp",
		"letters": "5",
		"trial_type": "html-keyboard-response",
		"trial_index": 41,
		"time_elapsed": 112757,
		"internal_node_id": "0.0-3.0-1.12"
	},
	{
		"rt": null,
		"stimulus": "+",
		"response": null,
		"trial_type": "html-keyboard-response",
		"trial_index": 42,
		"time_elapsed": 113260,
		"internal_node_id": "0.0-3.0-0.13"
	},
	{
		"rt": 844,
		"stimulus": "imitar",
		"response": "s",
		"class": "v",
		"status": "cog",
		"answer": "word",
		"correct": "S",
		"trial": "exp",
		"letters": "6",
		"trial_type": "html-keyboard-response",
		"trial_index": 43,
		"time_elapsed": 114106,
		"internal_node_id": "0.0-3.0-1.13"
	},
	{
		"rt": null,
		"stimulus": "+",
		"response": null,
		"trial_type": "html-keyboard-response",
		"trial_index": 44,
		"time_elapsed": 114609,
		"internal_node_id": "0.0-3.0-0.14"
	},
	{
		"rt": 2979,
		"stimulus": "disbrituir",
		"response": "n",
		"class": "null",
		"status": "noncog",
		"answer": "pseudo",
		"correct": "N",
		"trial": "exp",
		"letters": "null",
		"trial_type": "html-keyboard-response",
		"trial_index": 45,
		"time_elapsed": 117589,
		"internal_node_id": "0.0-3.0-1.14"
	},
	{
		"rt": null,
		"stimulus": "+",
		"response": null,
		"trial_type": "html-keyboard-response",
		"trial_index": 46,
		"time_elapsed": 118097,
		"internal_node_id": "0.0-3.0-0.15"
	},
	{
		"rt": 2218,
		"stimulus": "farcas",
		"response": "s",
		"class": "null",
		"status": "noncog",
		"answer": "pseudo",
		"correct": "N",
		"trial": "exp",
		"letters": "null",
		"trial_type": "html-keyboard-response",
		"trial_index": 47,
		"time_elapsed": 120317,
		"internal_node_id": "0.0-3.0-1.15"
	},
	{
		"rt": null,
		"stimulus": "+",
		"response": null,
		"trial_type": "html-keyboard-response",
		"trial_index": 48,
		"time_elapsed": 120819,
		"internal_node_id": "0.0-3.0-0.16"
	},
	{
		"rt": 3154,
		"stimulus": "ênclio",
		"response": "s",
		"class": "null",
		"status": "noncog",
		"answer": "pseudo",
		"correct": "N",
		"trial": "exp",
		"letters": "null",
		"trial_type": "html-keyboard-response",
		"trial_index": 49,
		"time_elapsed": 123974,
		"internal_node_id": "0.0-3.0-1.16"
	},
	{
		"rt": null,
		"stimulus": "+",
		"response": null,
		"trial_type": "html-keyboard-response",
		"trial_index": 50,
		"time_elapsed": 124478,
		"internal_node_id": "0.0-3.0-0.17"
	},
	{
		"rt": 1144,
		"stimulus": "ensuas",
		"response": "s",
		"class": "null",
		"status": "noncog",
		"answer": "pseudo",
		"correct": "N",
		"trial": "exp",
		"letters": "null",
		"trial_type": "html-keyboard-response",
		"trial_index": 51,
		"time_elapsed": 125624,
		"internal_node_id": "0.0-3.0-1.17"
	},
	{
		"rt": null,
		"stimulus": "+",
		"response": null,
		"trial_type": "html-keyboard-response",
		"trial_index": 52,
		"time_elapsed": 126149,
		"internal_node_id": "0.0-3.0-0.18"
	},
	{
		"rt": 1544,
		"stimulus": "usfiga",
		"response": "s",
		"class": "null",
		"status": "noncog",
		"answer": "pseudo",
		"correct": "N",
		"trial": "exp",
		"letters": "null",
		"trial_type": "html-keyboard-response",
		"trial_index": 53,
		"time_elapsed": 127694,
		"internal_node_id": "0.0-3.0-1.18"
	},
	{
		"rt": null,
		"stimulus": "+",
		"response": null,
		"trial_type": "html-keyboard-response",
		"trial_index": 54,
		"time_elapsed": 128198,
		"internal_node_id": "0.0-3.0-0.19"
	},
	{
		"rt": 1414,
		"stimulus": "fratos",
		"response": "s",
		"class": "null",
		"status": "noncog",
		"answer": "pseudo",
		"correct": "N",
		"trial": "exp",
		"letters": "null",
		"trial_type": "html-keyboard-response",
		"trial_index": 55,
		"time_elapsed": 129615,
		"internal_node_id": "0.0-3.0-1.19"
	},
	{
		"rt": null,
		"stimulus": "+",
		"response": null,
		"trial_type": "html-keyboard-response",
		"trial_index": 56,
		"time_elapsed": 130119,
		"internal_node_id": "0.0-3.0-0.20"
	},
	{
		"rt": 1618,
		"stimulus": "enxerido",
		"response": "s",
		"class": "a",
		"status": "noncog",
		"answer": "word",
		"correct": "S",
		"trial": "exp",
		"letters": "8",
		"trial_type": "html-keyboard-response",
		"trial_index": 57,
		"time_elapsed": 131739,
		"internal_node_id": "0.0-3.0-1.20"
	},
	{
		"rt": null,
		"stimulus": "+",
		"response": null,
		"trial_type": "html-keyboard-response",
		"trial_index": 58,
		"time_elapsed": 132241,
		"internal_node_id": "0.0-3.0-0.21"
	},
	{
		"rt": 1066,
		"stimulus": "lagoa",
		"response": "s",
		"class": "n",
		"status": "cog",
		"answer": "word",
		"correct": "S",
		"trial": "exp",
		"letters": "5",
		"trial_type": "html-keyboard-response",
		"trial_index": 59,
		"time_elapsed": 133310,
		"internal_node_id": "0.0-3.0-1.21"
	},
	{
		"rt": null,
		"stimulus": "+",
		"response": null,
		"trial_type": "html-keyboard-response",
		"trial_index": 60,
		"time_elapsed": 133812,
		"internal_node_id": "0.0-3.0-0.22"
	},
	{
		"rt": 752,
		"stimulus": "cinema",
		"response": "s",
		"class": "n",
		"status": "cog",
		"answer": "word",
		"correct": "S",
		"trial": "exp",
		"letters": "6",
		"trial_type": "html-keyboard-response",
		"trial_index": 61,
		"time_elapsed": 134569,
		"internal_node_id": "0.0-3.0-1.22"
	},
	{
		"rt": null,
		"stimulus": "+",
		"response": null,
		"trial_type": "html-keyboard-response",
		"trial_index": 62,
		"time_elapsed": 135091,
		"internal_node_id": "0.0-3.0-0.23"
	},
	{
		"rt": 560,
		"stimulus": "oper",
		"response": "s",
		"class": "null",
		"status": "noncog",
		"answer": "pseudo",
		"correct": "N",
		"trial": "exp",
		"letters": "null",
		"trial_type": "html-keyboard-response",
		"trial_index": 63,
		"time_elapsed": 135654,
		"internal_node_id": "0.0-3.0-1.23"
	},
	{
		"rt": null,
		"stimulus": "+",
		"response": null,
		"trial_type": "html-keyboard-response",
		"trial_index": 64,
		"time_elapsed": 136156,
		"internal_node_id": "0.0-3.0-0.24"
	},
	{
		"rt": 3726,
		"stimulus": "lagras",
		"response": "n",
		"class": "null",
		"status": "noncog",
		"answer": "pseudo",
		"correct": "N",
		"trial": "exp",
		"letters": "null",
		"trial_type": "html-keyboard-response",
		"trial_index": 65,
		"time_elapsed": 139884,
		"internal_node_id": "0.0-3.0-1.24"
	},
	{
		"rt": null,
		"stimulus": "+",
		"response": null,
		"trial_type": "html-keyboard-response",
		"trial_index": 66,
		"time_elapsed": 140387,
		"internal_node_id": "0.0-3.0-0.25"
	},
	{
		"rt": 1401,
		"stimulus": "burtos",
		"response": "s",
		"class": "null",
		"status": "noncog",
		"answer": "pseudo",
		"correct": "N",
		"trial": "exp",
		"letters": "null",
		"trial_type": "html-keyboard-response",
		"trial_index": 67,
		"time_elapsed": 141790,
		"internal_node_id": "0.0-3.0-1.25"
	},
	{
		"rt": null,
		"stimulus": "+",
		"response": null,
		"trial_type": "html-keyboard-response",
		"trial_index": 68,
		"time_elapsed": 142304,
		"internal_node_id": "0.0-3.0-0.26"
	},
	{
		"rt": 792,
		"stimulus": "adoçar",
		"response": "s",
		"class": "v",
		"status": "noncog",
		"answer": "word",
		"correct": "S",
		"trial": "exp",
		"letters": "6",
		"trial_type": "html-keyboard-response",
		"trial_index": 69,
		"time_elapsed": 143097,
		"internal_node_id": "0.0-3.0-1.26"
	},
	{
		"rt": null,
		"stimulus": "+",
		"response": null,
		"trial_type": "html-keyboard-response",
		"trial_index": 70,
		"time_elapsed": 143604,
		"internal_node_id": "0.0-3.0-0.27"
	},
	{
		"rt": 815,
		"stimulus": "filme",
		"response": "s",
		"class": "n",
		"status": "cog",
		"answer": "word",
		"correct": "S",
		"trial": "exp",
		"letters": "5",
		"trial_type": "html-keyboard-response",
		"trial_index": 71,
		"time_elapsed": 144424,
		"internal_node_id": "0.0-3.0-1.27"
	},
	{
		"rt": null,
		"stimulus": "+",
		"response": null,
		"trial_type": "html-keyboard-response",
		"trial_index": 72,
		"time_elapsed": 144927,
		"internal_node_id": "0.0-3.0-0.28"
	},
	{
		"rt": 621,
		"stimulus": "costra",
		"response": "s",
		"class": "null",
		"status": "noncog",
		"answer": "pseudo",
		"correct": "N",
		"trial": "exp",
		"letters": "null",
		"trial_type": "html-keyboard-response",
		"trial_index": 73,
		"time_elapsed": 145550,
		"internal_node_id": "0.0-3.0-1.28"
	},
	{
		"rt": null,
		"stimulus": "+",
		"response": null,
		"trial_type": "html-keyboard-response",
		"trial_index": 74,
		"time_elapsed": 146053,
		"internal_node_id": "0.0-3.0-0.29"
	},
	{
		"rt": 1033,
		"stimulus": "faínas",
		"response": "s",
		"class": "null",
		"status": "noncog",
		"answer": "pseudo",
		"correct": "N",
		"trial": "exp",
		"letters": "null",
		"trial_type": "html-keyboard-response",
		"trial_index": 75,
		"time_elapsed": 147088,
		"internal_node_id": "0.0-3.0-1.29"
	},
	{
		"rt": null,
		"stimulus": "+",
		"response": null,
		"trial_type": "html-keyboard-response",
		"trial_index": 76,
		"time_elapsed": 147591,
		"internal_node_id": "0.0-3.0-0.30"
	},
	{
		"rt": 760,
		"stimulus": "cravo",
		"response": "s",
		"class": "n",
		"status": "noncog",
		"answer": "word",
		"correct": "S",
		"trial": "exp",
		"letters": "5",
		"trial_type": "html-keyboard-response",
		"trial_index": 77,
		"time_elapsed": 148356,
		"internal_node_id": "0.0-3.0-1.30"
	},
	{
		"rt": null,
		"stimulus": "+",
		"response": null,
		"trial_type": "html-keyboard-response",
		"trial_index": 78,
		"time_elapsed": 148859,
		"internal_node_id": "0.0-3.0-0.31"
	},
	{
		"rt": 1721,
		"stimulus": "detative",
		"response": "s",
		"class": "null",
		"status": "noncog",
		"answer": "pseudo",
		"correct": "N",
		"trial": "exp",
		"letters": "null",
		"trial_type": "html-keyboard-response",
		"trial_index": 79,
		"time_elapsed": 150582,
		"internal_node_id": "0.0-3.0-1.31"
	},
	{
		"rt": null,
		"stimulus": "+",
		"response": null,
		"trial_type": "html-keyboard-response",
		"trial_index": 80,
		"time_elapsed": 151086,
		"internal_node_id": "0.0-3.0-0.32"
	},
	{
		"rt": 985,
		"stimulus": "delirar",
		"response": "s",
		"class": "v",
		"status": "noncog",
		"answer": "word",
		"correct": "S",
		"trial": "exp",
		"letters": "7",
		"trial_type": "html-keyboard-response",
		"trial_index": 81,
		"time_elapsed": 152074,
		"internal_node_id": "0.0-3.0-1.32"
	},
	{
		"rt": null,
		"stimulus": "+",
		"response": null,
		"trial_type": "html-keyboard-response",
		"trial_index": 82,
		"time_elapsed": 152576,
		"internal_node_id": "0.0-3.0-0.33"
	},
	{
		"rt": 733,
		"stimulus": "drama",
		"response": "s",
		"class": "n",
		"status": "cog",
		"answer": "word",
		"correct": "S",
		"trial": "exp",
		"letters": "5",
		"trial_type": "html-keyboard-response",
		"trial_index": 83,
		"time_elapsed": 153311,
		"internal_node_id": "0.0-3.0-1.33"
	},
	{
		"rt": null,
		"stimulus": "+",
		"response": null,
		"trial_type": "html-keyboard-response",
		"trial_index": 84,
		"time_elapsed": 153813,
		"internal_node_id": "0.0-3.0-0.34"
	},
	{
		"rt": 726,
		"stimulus": "mudança",
		"response": "s",
		"class": "n",
		"status": "noncog",
		"answer": "word",
		"correct": "S",
		"trial": "exp",
		"letters": "7",
		"trial_type": "html-keyboard-response",
		"trial_index": 85,
		"time_elapsed": 154541,
		"internal_node_id": "0.0-3.0-1.34"
	},
	{
		"rt": null,
		"stimulus": "+",
		"response": null,
		"trial_type": "html-keyboard-response",
		"trial_index": 86,
		"time_elapsed": 155044,
		"internal_node_id": "0.0-3.0-0.35"
	},
	{
		"rt": 796,
		"stimulus": "enxarto",
		"response": "s",
		"class": "null",
		"status": "noncog",
		"answer": "pseudo",
		"correct": "N",
		"trial": "exp",
		"letters": "null",
		"trial_type": "html-keyboard-response",
		"trial_index": 87,
		"time_elapsed": 155842,
		"internal_node_id": "0.0-3.0-1.35"
	},
	{
		"rt": null,
		"stimulus": "+",
		"response": null,
		"trial_type": "html-keyboard-response",
		"trial_index": 88,
		"time_elapsed": 156356,
		"internal_node_id": "0.0-3.0-0.36"
	},
	{
		"rt": 1641,
		"stimulus": "morar",
		"response": "s",
		"class": "v",
		"status": "noncog",
		"answer": "word",
		"correct": "S",
		"trial": "exp",
		"letters": "5",
		"trial_type": "html-keyboard-response",
		"trial_index": 89,
		"time_elapsed": 157999,
		"internal_node_id": "0.0-3.0-1.36"
	},
	{
		"rt": null,
		"stimulus": "+",
		"response": null,
		"trial_type": "html-keyboard-response",
		"trial_index": 90,
		"time_elapsed": 158502,
		"internal_node_id": "0.0-3.0-0.37"
	},
	{
		"rt": 831,
		"stimulus": "revista",
		"response": "s",
		"class": "n",
		"status": "cog",
		"answer": "word",
		"correct": "S",
		"trial": "exp",
		"letters": "7",
		"trial_type": "html-keyboard-response",
		"trial_index": 91,
		"time_elapsed": 159335,
		"internal_node_id": "0.0-3.0-1.37"
	},
	{
		"rt": null,
		"stimulus": "+",
		"response": null,
		"trial_type": "html-keyboard-response",
		"trial_index": 92,
		"time_elapsed": 159858,
		"internal_node_id": "0.0-3.0-0.38"
	},
	{
		"rt": 1267,
		"stimulus": "conjerto",
		"response": "s",
		"class": "null",
		"status": "noncog",
		"answer": "pseudo",
		"correct": "N",
		"trial": "exp",
		"letters": "null",
		"trial_type": "html-keyboard-response",
		"trial_index": 93,
		"time_elapsed": 161133,
		"internal_node_id": "0.0-3.0-1.38"
	},
	{
		"rt": null,
		"stimulus": "+",
		"response": null,
		"trial_type": "html-keyboard-response",
		"trial_index": 94,
		"time_elapsed": 161636,
		"internal_node_id": "0.0-3.0-0.39"
	},
	{
		"rt": 1080,
		"stimulus": "agressivo",
		"response": "s",
		"class": "a",
		"status": "cog",
		"answer": "word",
		"correct": "S",
		"trial": "exp",
		"letters": "9",
		"trial_type": "html-keyboard-response",
		"trial_index": 95,
		"time_elapsed": 162718,
		"internal_node_id": "0.0-3.0-1.39"
	},
	{
		"rt": null,
		"stimulus": "+",
		"response": null,
		"trial_type": "html-keyboard-response",
		"trial_index": 96,
		"time_elapsed": 163221,
		"internal_node_id": "0.0-3.0-0.40"
	},
	{
		"rt": 1199,
		"stimulus": "cápsula",
		"response": "s",
		"class": "n",
		"status": "noncog",
		"answer": "word",
		"correct": "S",
		"trial": "exp",
		"letters": "7",
		"trial_type": "html-keyboard-response",
		"trial_index": 97,
		"time_elapsed": 164422,
		"internal_node_id": "0.0-3.0-1.40"
	},
	{
		"rt": null,
		"stimulus": "+",
		"response": null,
		"trial_type": "html-keyboard-response",
		"trial_index": 98,
		"time_elapsed": 164930,
		"internal_node_id": "0.0-3.0-0.41"
	},
	{
		"rt": 991,
		"stimulus": "alfabeto",
		"response": "s",
		"class": "n",
		"status": "cog",
		"answer": "word",
		"correct": "S",
		"trial": "exp",
		"letters": "8",
		"trial_type": "html-keyboard-response",
		"trial_index": 99,
		"time_elapsed": 165925,
		"internal_node_id": "0.0-3.0-1.41"
	},
	{
		"rt": null,
		"stimulus": "+",
		"response": null,
		"trial_type": "html-keyboard-response",
		"trial_index": 100,
		"time_elapsed": 166428,
		"internal_node_id": "0.0-3.0-0.42"
	},
	{
		"rt": 669,
		"stimulus": "prenas",
		"response": "s",
		"class": "null",
		"status": "noncog",
		"answer": "pseudo",
		"correct": "N",
		"trial": "exp",
		"letters": "null",
		"trial_type": "html-keyboard-response",
		"trial_index": 101,
		"time_elapsed": 167099,
		"internal_node_id": "0.0-3.0-1.42"
	},
	{
		"rt": null,
		"stimulus": "+",
		"response": null,
		"trial_type": "html-keyboard-response",
		"trial_index": 102,
		"time_elapsed": 167603,
		"internal_node_id": "0.0-3.0-0.43"
	},
	{
		"rt": 675,
		"stimulus": "fino",
		"response": "s",
		"class": "a",
		"status": "cog",
		"answer": "word",
		"correct": "S",
		"trial": "exp",
		"letters": "4",
		"trial_type": "html-keyboard-response",
		"trial_index": 103,
		"time_elapsed": 168280,
		"internal_node_id": "0.0-3.0-1.43"
	},
	{
		"rt": null,
		"stimulus": "+",
		"response": null,
		"trial_type": "html-keyboard-response",
		"trial_index": 104,
		"time_elapsed": 168784,
		"internal_node_id": "0.0-3.0-0.44"
	},
	{
		"rt": 1464,
		"stimulus": "usnado",
		"response": "n",
		"class": "null",
		"status": "noncog",
		"answer": "pseudo",
		"correct": "N",
		"trial": "exp",
		"letters": "null",
		"trial_type": "html-keyboard-response",
		"trial_index": 105,
		"time_elapsed": 170249,
		"internal_node_id": "0.0-3.0-1.44"
	},
	{
		"rt": null,
		"stimulus": "+",
		"response": null,
		"trial_type": "html-keyboard-response",
		"trial_index": 106,
		"time_elapsed": 170754,
		"internal_node_id": "0.0-3.0-0.45"
	},
	{
		"rt": 723,
		"stimulus": "pulmão",
		"response": "s",
		"class": "n",
		"status": "noncog",
		"answer": "word",
		"correct": "S",
		"trial": "exp",
		"letters": "6",
		"trial_type": "html-keyboard-response",
		"trial_index": 107,
		"time_elapsed": 171479,
		"internal_node_id": "0.0-3.0-1.45"
	},
	{
		"rt": null,
		"stimulus": "+",
		"response": null,
		"trial_type": "html-keyboard-response",
		"trial_index": 108,
		"time_elapsed": 171982,
		"internal_node_id": "0.0-3.0-0.46"
	},
	{
		"rt": 695,
		"stimulus": "esperar",
		"response": "s",
		"class": "v",
		"status": "cog",
		"answer": "word",
		"correct": "S",
		"trial": "exp",
		"letters": "7",
		"trial_type": "html-keyboard-response",
		"trial_index": 109,
		"time_elapsed": 172679,
		"internal_node_id": "0.0-3.0-1.46"
	},
	{
		"rt": null,
		"stimulus": "+",
		"response": null,
		"trial_type": "html-keyboard-response",
		"trial_index": 110,
		"time_elapsed": 173183,
		"internal_node_id": "0.0-3.0-0.47"
	},
	{
		"rt": 1156,
		"stimulus": "alpica",
		"response": "s",
		"class": "null",
		"status": "noncog",
		"answer": "pseudo",
		"correct": "N",
		"trial": "exp",
		"letters": "null",
		"trial_type": "html-keyboard-response",
		"trial_index": 111,
		"time_elapsed": 174344,
		"internal_node_id": "0.0-3.0-1.47"
	},
	{
		"rt": null,
		"stimulus": "+",
		"response": null,
		"trial_type": "html-keyboard-response",
		"trial_index": 112,
		"time_elapsed": 174853,
		"internal_node_id": "0.0-3.0-0.48"
	},
	{
		"rt": 792,
		"stimulus": "frotes",
		"response": "s",
		"class": "null",
		"status": "noncog",
		"answer": "pseudo",
		"correct": "N",
		"trial": "exp",
		"letters": "null",
		"trial_type": "html-keyboard-response",
		"trial_index": 113,
		"time_elapsed": 175647,
		"internal_node_id": "0.0-3.0-1.48"
	},
	{
		"rt": null,
		"stimulus": "+",
		"response": null,
		"trial_type": "html-keyboard-response",
		"trial_index": 114,
		"time_elapsed": 176149,
		"internal_node_id": "0.0-3.0-0.49"
	},
	{
		"rt": 728,
		"stimulus": "taberia",
		"response": "s",
		"class": "null",
		"status": "noncog",
		"answer": "pseudo",
		"correct": "N",
		"trial": "exp",
		"letters": "null",
		"trial_type": "html-keyboard-response",
		"trial_index": 115,
		"time_elapsed": 176880,
		"internal_node_id": "0.0-3.0-1.49"
	},
	{
		"rt": null,
		"stimulus": "+",
		"response": null,
		"trial_type": "html-keyboard-response",
		"trial_index": 116,
		"time_elapsed": 177391,
		"internal_node_id": "0.0-3.0-0.50"
	},
	{
		"rt": 764,
		"stimulus": "cerca",
		"response": "s",
		"class": "n",
		"status": "noncog",
		"answer": "word",
		"correct": "S",
		"trial": "exp",
		"letters": "5",
		"trial_type": "html-keyboard-response",
		"trial_index": 117,
		"time_elapsed": 178158,
		"internal_node_id": "0.0-3.0-1.50"
	},
	{
		"rt": null,
		"stimulus": "+",
		"response": null,
		"trial_type": "html-keyboard-response",
		"trial_index": 118,
		"time_elapsed": 178660,
		"internal_node_id": "0.0-3.0-0.51"
	},
	{
		"rt": 883,
		"stimulus": "quenzina",
		"response": "s",
		"class": "null",
		"status": "noncog",
		"answer": "pseudo",
		"correct": "N",
		"trial": "exp",
		"letters": "null",
		"trial_type": "html-keyboard-response",
		"trial_index": 119,
		"time_elapsed": 179548,
		"internal_node_id": "0.0-3.0-1.51"
	},
	{
		"rt": null,
		"stimulus": "+",
		"response": null,
		"trial_type": "html-keyboard-response",
		"trial_index": 120,
		"time_elapsed": 180053,
		"internal_node_id": "0.0-3.0-0.52"
	},
	{
		"rt": 700,
		"stimulus": "carona",
		"response": "s",
		"class": "n",
		"status": "noncog",
		"answer": "word",
		"correct": "S",
		"trial": "exp",
		"letters": "6",
		"trial_type": "html-keyboard-response",
		"trial_index": 121,
		"time_elapsed": 180756,
		"internal_node_id": "0.0-3.0-1.52"
	},
	{
		"rt": null,
		"stimulus": "+",
		"response": null,
		"trial_type": "html-keyboard-response",
		"trial_index": 122,
		"time_elapsed": 181260,
		"internal_node_id": "0.0-3.0-0.53"
	},
	{
		"rt": 838,
		"stimulus": "memória",
		"response": "s",
		"class": "n",
		"status": "cog",
		"answer": "word",
		"correct": "S",
		"trial": "exp",
		"letters": "7",
		"trial_type": "html-keyboard-response",
		"trial_index": 123,
		"time_elapsed": 182100,
		"internal_node_id": "0.0-3.0-1.53"
	},
	{
		"rt": null,
		"stimulus": "+",
		"response": null,
		"trial_type": "html-keyboard-response",
		"trial_index": 124,
		"time_elapsed": 182603,
		"internal_node_id": "0.0-3.0-0.54"
	},
	{
		"rt": 714,
		"stimulus": "motros",
		"response": "s",
		"class": "null",
		"status": "noncog",
		"answer": "pseudo",
		"correct": "N",
		"trial": "exp",
		"letters": "null",
		"trial_type": "html-keyboard-response",
		"trial_index": 125,
		"time_elapsed": 183319,
		"internal_node_id": "0.0-3.0-1.54"
	},
	{
		"rt": null,
		"stimulus": "+",
		"response": null,
		"trial_type": "html-keyboard-response",
		"trial_index": 126,
		"time_elapsed": 183822,
		"internal_node_id": "0.0-3.0-0.55"
	},
	{
		"rt": 1075,
		"stimulus": "avenas",
		"response": "s",
		"class": "null",
		"status": "noncog",
		"answer": "pseudo",
		"correct": "N",
		"trial": "exp",
		"letters": "null",
		"trial_type": "html-keyboard-response",
		"trial_index": 127,
		"time_elapsed": 184899,
		"internal_node_id": "0.0-3.0-1.55"
	},
	{
		"rt": null,
		"stimulus": "+",
		"response": null,
		"trial_type": "html-keyboard-response",
		"trial_index": 128,
		"time_elapsed": 185402,
		"internal_node_id": "0.0-3.0-0.56"
	},
	{
		"rt": 548,
		"stimulus": "barco",
		"response": "s",
		"class": "n",
		"status": "cog",
		"answer": "word",
		"correct": "S",
		"trial": "exp",
		"letters": "5",
		"trial_type": "html-keyboard-response",
		"trial_index": 129,
		"time_elapsed": 185952,
		"internal_node_id": "0.0-3.0-1.56"
	},
	{
		"rt": null,
		"stimulus": "+",
		"response": null,
		"trial_type": "html-keyboard-response",
		"trial_index": 130,
		"time_elapsed": 186455,
		"internal_node_id": "0.0-3.0-0.57"
	},
	{
		"rt": 583,
		"stimulus": "viver",
		"response": "s",
		"class": "v",
		"status": "cog",
		"answer": "word",
		"correct": "S",
		"trial": "exp",
		"letters": "5",
		"trial_type": "html-keyboard-response",
		"trial_index": 131,
		"time_elapsed": 187039,
		"internal_node_id": "0.0-3.0-1.57"
	},
	{
		"rt": null,
		"stimulus": "+",
		"response": null,
		"trial_type": "html-keyboard-response",
		"trial_index": 132,
		"time_elapsed": 187543,
		"internal_node_id": "0.0-3.0-0.58"
	},
	{
		"rt": 4918,
		"stimulus": "beima",
		"response": "n",
		"class": "null",
		"status": "noncog",
		"answer": "pseudo",
		"correct": "N",
		"trial": "exp",
		"letters": "null",
		"trial_type": "html-keyboard-response",
		"trial_index": 133,
		"time_elapsed": 192464,
		"internal_node_id": "0.0-3.0-1.58"
	},
	{
		"rt": null,
		"stimulus": "+",
		"response": null,
		"trial_type": "html-keyboard-response",
		"trial_index": 134,
		"time_elapsed": 192988,
		"internal_node_id": "0.0-3.0-0.59"
	},
	{
		"rt": 1789,
		"stimulus": "sintonizar",
		"response": "s",
		"class": "v",
		"status": "noncog",
		"answer": "word",
		"correct": "S",
		"trial": "exp",
		"letters": "10",
		"trial_type": "html-keyboard-response",
		"trial_index": 135,
		"time_elapsed": 194779,
		"internal_node_id": "0.0-3.0-1.59"
	},
	{
		"rt": null,
		"stimulus": "+",
		"response": null,
		"trial_type": "html-keyboard-response",
		"trial_index": 136,
		"time_elapsed": 195287,
		"internal_node_id": "0.0-3.0-0.60"
	},
	{
		"rt": 646,
		"stimulus": "destino",
		"response": "s",
		"class": "n",
		"status": "cog",
		"answer": "word",
		"correct": "S",
		"trial": "exp",
		"letters": "7",
		"trial_type": "html-keyboard-response",
		"trial_index": 137,
		"time_elapsed": 195940,
		"internal_node_id": "0.0-3.0-1.60"
	},
	{
		"rt": null,
		"stimulus": "+",
		"response": null,
		"trial_type": "html-keyboard-response",
		"trial_index": 138,
		"time_elapsed": 196442,
		"internal_node_id": "0.0-3.0-0.61"
	},
	{
		"rt": 4015,
		"stimulus": "orupas",
		"response": "s",
		"class": "null",
		"status": "noncog",
		"answer": "pseudo",
		"correct": "N",
		"trial": "exp",
		"letters": "null",
		"trial_type": "html-keyboard-response",
		"trial_index": 139,
		"time_elapsed": 200459,
		"internal_node_id": "0.0-3.0-1.61"
	},
	{
		"rt": null,
		"stimulus": "+",
		"response": null,
		"trial_type": "html-keyboard-response",
		"trial_index": 140,
		"time_elapsed": 200963,
		"internal_node_id": "0.0-3.0-0.62"
	},
	{
		"rt": 1754,
		"stimulus": "dobradiça",
		"response": "s",
		"class": "n",
		"status": "noncog",
		"answer": "word",
		"correct": "S",
		"trial": "exp",
		"letters": "9",
		"trial_type": "html-keyboard-response",
		"trial_index": 141,
		"time_elapsed": 202720,
		"internal_node_id": "0.0-3.0-1.62"
	},
	{
		"rt": null,
		"stimulus": "+",
		"response": null,
		"trial_type": "html-keyboard-response",
		"trial_index": 142,
		"time_elapsed": 203222,
		"internal_node_id": "0.0-3.0-0.63"
	},
	{
		"rt": 647,
		"stimulus": "fofo",
		"response": "s",
		"class": "a",
		"status": "noncog",
		"answer": "word",
		"correct": "S",
		"trial": "exp",
		"letters": "4",
		"trial_type": "html-keyboard-response",
		"trial_index": 143,
		"time_elapsed": 203872,
		"internal_node_id": "0.0-3.0-1.63"
	},
	{
		"rt": null,
		"stimulus": "+",
		"response": null,
		"trial_type": "html-keyboard-response",
		"trial_index": 144,
		"time_elapsed": 204374,
		"internal_node_id": "0.0-3.0-0.64"
	},
	{
		"rt": 585,
		"stimulus": "macras",
		"response": "s",
		"class": "null",
		"status": "noncog",
		"answer": "pseudo",
		"correct": "N",
		"trial": "exp",
		"letters": "null",
		"trial_type": "html-keyboard-response",
		"trial_index": 145,
		"time_elapsed": 204965,
		"internal_node_id": "0.0-3.0-1.64"
	},
	{
		"rt": null,
		"stimulus": "+",
		"response": null,
		"trial_type": "html-keyboard-response",
		"trial_index": 146,
		"time_elapsed": 205471,
		"internal_node_id": "0.0-3.0-0.65"
	},
	{
		"rt": 676,
		"stimulus": "franda",
		"response": "s",
		"class": "null",
		"status": "noncog",
		"answer": "pseudo",
		"correct": "N",
		"trial": "exp",
		"letters": "null",
		"trial_type": "html-keyboard-response",
		"trial_index": 147,
		"time_elapsed": 206150,
		"internal_node_id": "0.0-3.0-1.65"
	},
	{
		"rt": null,
		"stimulus": "+",
		"response": null,
		"trial_type": "html-keyboard-response",
		"trial_index": 148,
		"time_elapsed": 206654,
		"internal_node_id": "0.0-3.0-0.66"
	},
	{
		"rt": 4048,
		"stimulus": "suipestar",
		"response": "n",
		"class": "null",
		"status": "noncog",
		"answer": "pseudo",
		"correct": "N",
		"trial": "exp",
		"letters": "null",
		"trial_type": "html-keyboard-response",
		"trial_index": 149,
		"time_elapsed": 210704,
		"internal_node_id": "0.0-3.0-1.66"
	},
	{
		"rt": null,
		"stimulus": "+",
		"response": null,
		"trial_type": "html-keyboard-response",
		"trial_index": 150,
		"time_elapsed": 211208,
		"internal_node_id": "0.0-3.0-0.67"
	},
	{
		"rt": 1005,
		"stimulus": "boreta",
		"response": "s",
		"class": "null",
		"status": "noncog",
		"answer": "pseudo",
		"correct": "N",
		"trial": "exp",
		"letters": "null",
		"trial_type": "html-keyboard-response",
		"trial_index": 151,
		"time_elapsed": 212216,
		"internal_node_id": "0.0-3.0-1.67"
	},
	{
		"rt": null,
		"stimulus": "+",
		"response": null,
		"trial_type": "html-keyboard-response",
		"trial_index": 152,
		"time_elapsed": 212718,
		"internal_node_id": "0.0-3.0-0.68"
	},
	{
		"rt": 1559,
		"stimulus": "pantufa",
		"response": "s",
		"class": "n",
		"status": "cog",
		"answer": "word",
		"correct": "S",
		"trial": "exp",
		"letters": "7",
		"trial_type": "html-keyboard-response",
		"trial_index": 153,
		"time_elapsed": 214279,
		"internal_node_id": "0.0-3.0-1.68"
	},
	{
		"rt": null,
		"stimulus": "+",
		"response": null,
		"trial_type": "html-keyboard-response",
		"trial_index": 154,
		"time_elapsed": 214782,
		"internal_node_id": "0.0-3.0-0.69"
	},
	{
		"rt": 1713,
		"stimulus": "resmungar",
		"response": "s",
		"class": "v",
		"status": "noncog",
		"answer": "word",
		"correct": "S",
		"trial": "exp",
		"letters": "9",
		"trial_type": "html-keyboard-response",
		"trial_index": 155,
		"time_elapsed": 216496,
		"internal_node_id": "0.0-3.0-1.69"
	},
	{
		"rt": null,
		"stimulus": "+",
		"response": null,
		"trial_type": "html-keyboard-response",
		"trial_index": 156,
		"time_elapsed": 216998,
		"internal_node_id": "0.0-3.0-0.70"
	},
	{
		"rt": 891,
		"stimulus": "delomir",
		"response": "s",
		"class": "null",
		"status": "noncog",
		"answer": "pseudo",
		"correct": "N",
		"trial": "exp",
		"letters": "null",
		"trial_type": "html-keyboard-response",
		"trial_index": 157,
		"time_elapsed": 217891,
		"internal_node_id": "0.0-3.0-1.70"
	},
	{
		"rt": null,
		"stimulus": "+",
		"response": null,
		"trial_type": "html-keyboard-response",
		"trial_index": 158,
		"time_elapsed": 218396,
		"internal_node_id": "0.0-3.0-0.71"
	},
	{
		"rt": 896,
		"stimulus": "mania",
		"response": "s",
		"class": "n",
		"status": "cog",
		"answer": "word",
		"correct": "S",
		"trial": "exp",
		"letters": "5",
		"trial_type": "html-keyboard-response",
		"trial_index": 159,
		"time_elapsed": 219295,
		"internal_node_id": "0.0-3.0-1.71"
	},
	{
		"rt": null,
		"stimulus": "+",
		"response": null,
		"trial_type": "html-keyboard-response",
		"trial_index": 160,
		"time_elapsed": 219798,
		"internal_node_id": "0.0-3.0-0.72"
	},
	{
		"rt": 910,
		"stimulus": "distraído",
		"response": "s",
		"class": "a",
		"status": "cog",
		"answer": "word",
		"correct": "S",
		"trial": "exp",
		"letters": "9",
		"trial_type": "html-keyboard-response",
		"trial_index": 161,
		"time_elapsed": 220709,
		"internal_node_id": "0.0-3.0-1.72"
	},
	{
		"rt": null,
		"stimulus": "+",
		"response": null,
		"trial_type": "html-keyboard-response",
		"trial_index": 162,
		"time_elapsed": 221212,
		"internal_node_id": "0.0-3.0-0.73"
	},
	{
		"rt": 891,
		"stimulus": "sábio",
		"response": "s",
		"class": "n",
		"status": "noncog",
		"answer": "word",
		"correct": "S",
		"trial": "exp",
		"letters": "5",
		"trial_type": "html-keyboard-response",
		"trial_index": 163,
		"time_elapsed": 222105,
		"internal_node_id": "0.0-3.0-1.73"
	},
	{
		"rt": null,
		"stimulus": "+",
		"response": null,
		"trial_type": "html-keyboard-response",
		"trial_index": 164,
		"time_elapsed": 222609,
		"internal_node_id": "0.0-3.0-0.74"
	},
	{
		"rt": 693,
		"stimulus": "trenos",
		"response": "s",
		"class": "null",
		"status": "noncog",
		"answer": "pseudo",
		"correct": "N",
		"trial": "exp",
		"letters": "null",
		"trial_type": "html-keyboard-response",
		"trial_index": 165,
		"time_elapsed": 223304,
		"internal_node_id": "0.0-3.0-1.74"
	},
	{
		"rt": null,
		"stimulus": "+",
		"response": null,
		"trial_type": "html-keyboard-response",
		"trial_index": 166,
		"time_elapsed": 223809,
		"internal_node_id": "0.0-3.0-0.75"
	},
	{
		"rt": 697,
		"stimulus": "atrasar",
		"response": "s",
		"class": "v",
		"status": "noncog",
		"answer": "word",
		"correct": "S",
		"trial": "exp",
		"letters": "7",
		"trial_type": "html-keyboard-response",
		"trial_index": 167,
		"time_elapsed": 224508,
		"internal_node_id": "0.0-3.0-1.75"
	},
	{
		"rt": null,
		"stimulus": "+",
		"response": null,
		"trial_type": "html-keyboard-response",
		"trial_index": 168,
		"time_elapsed": 225012,
		"internal_node_id": "0.0-3.0-0.76"
	},
	{
		"rt": 987,
		"stimulus": "tímido",
		"response": "s",
		"class": "a",
		"status": "cog",
		"answer": "word",
		"correct": "S",
		"trial": "exp",
		"letters": "6",
		"trial_type": "html-keyboard-response",
		"trial_index": 169,
		"time_elapsed": 226009,
		"internal_node_id": "0.0-3.0-1.76"
	},
	{
		"rt": null,
		"stimulus": "+",
		"response": null,
		"trial_type": "html-keyboard-response",
		"trial_index": 170,
		"time_elapsed": 226526,
		"internal_node_id": "0.0-3.0-0.77"
	},
	{
		"rt": 908,
		"stimulus": "especial",
		"response": "s",
		"class": "a",
		"status": "cog",
		"answer": "word",
		"correct": "S",
		"trial": "exp",
		"letters": "8",
		"trial_type": "html-keyboard-response",
		"trial_index": 171,
		"time_elapsed": 227448,
		"internal_node_id": "0.0-3.0-1.77"
	},
	{
		"rt": null,
		"stimulus": "+",
		"response": null,
		"trial_type": "html-keyboard-response",
		"trial_index": 172,
		"time_elapsed": 227951,
		"internal_node_id": "0.0-3.0-0.78"
	},
	{
		"rt": 654,
		"stimulus": "verde",
		"response": "s",
		"class": "a",
		"status": "noncog",
		"answer": "word",
		"correct": "S",
		"trial": "exp",
		"letters": "5",
		"trial_type": "html-keyboard-response",
		"trial_index": 173,
		"time_elapsed": 228608,
		"internal_node_id": "0.0-3.0-1.78"
	},
	{
		"rt": null,
		"stimulus": "+",
		"response": null,
		"trial_type": "html-keyboard-response",
		"trial_index": 174,
		"time_elapsed": 229115,
		"internal_node_id": "0.0-3.0-0.79"
	},
	{
		"rt": 2306,
		"stimulus": "preferir",
		"response": "s",
		"class": "v",
		"status": "cog",
		"answer": "word",
		"correct": "S",
		"trial": "exp",
		"letters": "8",
		"trial_type": "html-keyboard-response",
		"trial_index": 175,
		"time_elapsed": 231425,
		"internal_node_id": "0.0-3.0-1.79"
	},
	{
		"rt": null,
		"stimulus": "+",
		"response": null,
		"trial_type": "html-keyboard-response",
		"trial_index": 176,
		"time_elapsed": 231930,
		"internal_node_id": "0.0-3.0-0.80"
	},
	{
		"rt": 1622,
		"stimulus": "aparme",
		"response": "s",
		"class": "null",
		"status": "noncog",
		"answer": "pseudo",
		"correct": "N",
		"trial": "exp",
		"letters": "null",
		"trial_type": "html-keyboard-response",
		"trial_index": 177,
		"time_elapsed": 233554,
		"internal_node_id": "0.0-3.0-1.80"
	},
	{
		"rt": null,
		"stimulus": "+",
		"response": null,
		"trial_type": "html-keyboard-response",
		"trial_index": 178,
		"time_elapsed": 234062,
		"internal_node_id": "0.0-3.0-0.81"
	},
	{
		"rt": 698,
		"stimulus": "fogão",
		"response": "s",
		"class": "n",
		"status": "noncog",
		"answer": "word",
		"correct": "S",
		"trial": "exp",
		"letters": "5",
		"trial_type": "html-keyboard-response",
		"trial_index": 179,
		"time_elapsed": 234761,
		"internal_node_id": "0.0-3.0-1.81"
	},
	{
		"rt": null,
		"stimulus": "+",
		"response": null,
		"trial_type": "html-keyboard-response",
		"trial_index": 180,
		"time_elapsed": 235267,
		"internal_node_id": "0.0-3.0-0.82"
	},
	{
		"rt": 722,
		"stimulus": "nervoso",
		"response": "s",
		"class": "a",
		"status": "noncog",
		"answer": "word",
		"correct": "S",
		"trial": "exp",
		"letters": "7",
		"trial_type": "html-keyboard-response",
		"trial_index": 181,
		"time_elapsed": 235992,
		"internal_node_id": "0.0-3.0-1.82"
	},
	{
		"rt": null,
		"stimulus": "+",
		"response": null,
		"trial_type": "html-keyboard-response",
		"trial_index": 182,
		"time_elapsed": 236495,
		"internal_node_id": "0.0-3.0-0.83"
	},
	{
		"rt": 627,
		"stimulus": "raspar",
		"response": "s",
		"class": "v",
		"status": "noncog",
		"answer": "word",
		"correct": "S",
		"trial": "exp",
		"letters": "6",
		"trial_type": "html-keyboard-response",
		"trial_index": 183,
		"time_elapsed": 237123,
		"internal_node_id": "0.0-3.0-1.83"
	},
	{
		"rt": null,
		"stimulus": "+",
		"response": null,
		"trial_type": "html-keyboard-response",
		"trial_index": 184,
		"time_elapsed": 237629,
		"internal_node_id": "0.0-3.0-0.84"
	},
	{
		"rt": 1198,
		"stimulus": "incomodar",
		"response": "s",
		"class": "v",
		"status": "noncog",
		"answer": "word",
		"correct": "S",
		"trial": "exp",
		"letters": "9",
		"trial_type": "html-keyboard-response",
		"trial_index": 185,
		"time_elapsed": 238829,
		"internal_node_id": "0.0-3.0-1.84"
	},
	{
		"rt": null,
		"stimulus": "+",
		"response": null,
		"trial_type": "html-keyboard-response",
		"trial_index": 186,
		"time_elapsed": 239332,
		"internal_node_id": "0.0-3.0-0.85"
	},
	{
		"rt": 572,
		"stimulus": "dia",
		"response": "s",
		"class": "n",
		"status": "noncog",
		"answer": "word",
		"correct": "S",
		"trial": "exp",
		"letters": "3",
		"trial_type": "html-keyboard-response",
		"trial_index": 187,
		"time_elapsed": 239906,
		"internal_node_id": "0.0-3.0-1.85"
	},
	{
		"rt": null,
		"stimulus": "+",
		"response": null,
		"trial_type": "html-keyboard-response",
		"trial_index": 188,
		"time_elapsed": 240409,
		"internal_node_id": "0.0-3.0-0.86"
	},
	{
		"rt": 606,
		"stimulus": "espaço",
		"response": "s",
		"class": "n",
		"status": "cog",
		"answer": "word",
		"correct": "S",
		"trial": "exp",
		"letters": "6",
		"trial_type": "html-keyboard-response",
		"trial_index": 189,
		"time_elapsed": 241021,
		"internal_node_id": "0.0-3.0-1.86"
	},
	{
		"rt": null,
		"stimulus": "+",
		"response": null,
		"trial_type": "html-keyboard-response",
		"trial_index": 190,
		"time_elapsed": 241524,
		"internal_node_id": "0.0-3.0-0.87"
	},
	{
		"rt": 2465,
		"stimulus": "ejerro",
		"response": "s",
		"class": "null",
		"status": "noncog",
		"answer": "pseudo",
		"correct": "N",
		"trial": "exp",
		"letters": "null",
		"trial_type": "html-keyboard-response",
		"trial_index": 191,
		"time_elapsed": 243992,
		"internal_node_id": "0.0-3.0-1.87"
	},
	{
		"rt": null,
		"stimulus": "+",
		"response": null,
		"trial_type": "html-keyboard-response",
		"trial_index": 192,
		"time_elapsed": 244493,
		"internal_node_id": "0.0-3.0-0.88"
	},
	{
		"rt": 780,
		"stimulus": "brincar",
		"response": "s",
		"class": "v",
		"status": "noncog",
		"answer": "word",
		"correct": "S",
		"trial": "exp",
		"letters": "7",
		"trial_type": "html-keyboard-response",
		"trial_index": 193,
		"time_elapsed": 245275,
		"internal_node_id": "0.0-3.0-1.88"
	},
	{
		"rt": null,
		"stimulus": "+",
		"response": null,
		"trial_type": "html-keyboard-response",
		"trial_index": 194,
		"time_elapsed": 245778,
		"internal_node_id": "0.0-3.0-0.89"
	},
	{
		"rt": 1356,
		"stimulus": "parceter",
		"response": "s",
		"class": "null",
		"status": "noncog",
		"answer": "pseudo",
		"correct": "N",
		"trial": "exp",
		"letters": "null",
		"trial_type": "html-keyboard-response",
		"trial_index": 195,
		"time_elapsed": 247138,
		"internal_node_id": "0.0-3.0-1.89"
	},
	{
		"rt": null,
		"stimulus": "+",
		"response": null,
		"trial_type": "html-keyboard-response",
		"trial_index": 196,
		"time_elapsed": 247659,
		"internal_node_id": "0.0-3.0-0.90"
	},
	{
		"rt": 839,
		"stimulus": "bancada",
		"response": "s",
		"class": "n",
		"status": "noncog",
		"answer": "word",
		"correct": "S",
		"trial": "exp",
		"letters": "7",
		"trial_type": "html-keyboard-response",
		"trial_index": 197,
		"time_elapsed": 248501,
		"internal_node_id": "0.0-3.0-1.90"
	},
	{
		"rt": null,
		"stimulus": "+",
		"response": null,
		"trial_type": "html-keyboard-response",
		"trial_index": 198,
		"time_elapsed": 249003,
		"internal_node_id": "0.0-3.0-0.91"
	},
	{
		"rt": 746,
		"stimulus": "manais",
		"response": "s",
		"class": "null",
		"status": "noncog",
		"answer": "pseudo",
		"correct": "N",
		"trial": "exp",
		"letters": "null",
		"trial_type": "html-keyboard-response",
		"trial_index": 199,
		"time_elapsed": 249752,
		"internal_node_id": "0.0-3.0-1.91"
	},
	{
		"rt": null,
		"stimulus": "+",
		"response": null,
		"trial_type": "html-keyboard-response",
		"trial_index": 200,
		"time_elapsed": 250266,
		"internal_node_id": "0.0-3.0-0.92"
	},
	{
		"rt": 853,
		"stimulus": "filosofia",
		"response": "s",
		"class": "n",
		"status": "cog",
		"answer": "word",
		"correct": "S",
		"trial": "exp",
		"letters": "9",
		"trial_type": "html-keyboard-response",
		"trial_index": 201,
		"time_elapsed": 251121,
		"internal_node_id": "0.0-3.0-1.92"
	},
	{
		"rt": null,
		"stimulus": "+",
		"response": null,
		"trial_type": "html-keyboard-response",
		"trial_index": 202,
		"time_elapsed": 251624,
		"internal_node_id": "0.0-3.0-0.93"
	},
	{
		"rt": 691,
		"stimulus": "protas",
		"response": "s",
		"class": "null",
		"status": "noncog",
		"answer": "pseudo",
		"correct": "N",
		"trial": "exp",
		"letters": "null",
		"trial_type": "html-keyboard-response",
		"trial_index": 203,
		"time_elapsed": 252322,
		"internal_node_id": "0.0-3.0-1.93"
	},
	{
		"rt": null,
		"stimulus": "+",
		"response": null,
		"trial_type": "html-keyboard-response",
		"trial_index": 204,
		"time_elapsed": 252824,
		"internal_node_id": "0.0-3.0-0.94"
	},
	{
		"rt": 590,
		"stimulus": "nevela",
		"response": "s",
		"class": "null",
		"status": "noncog",
		"answer": "pseudo",
		"correct": "N",
		"trial": "exp",
		"letters": "null",
		"trial_type": "html-keyboard-response",
		"trial_index": 205,
		"time_elapsed": 253420,
		"internal_node_id": "0.0-3.0-1.94"
	},
	{
		"rt": null,
		"stimulus": "+",
		"response": null,
		"trial_type": "html-keyboard-response",
		"trial_index": 206,
		"time_elapsed": 253922,
		"internal_node_id": "0.0-3.0-0.95"
	},
	{
		"rt": 604,
		"stimulus": "árovre",
		"response": "s",
		"class": "null",
		"status": "noncog",
		"answer": "pseudo",
		"correct": "N",
		"trial": "exp",
		"letters": "null",
		"trial_type": "html-keyboard-response",
		"trial_index": 207,
		"time_elapsed": 254529,
		"internal_node_id": "0.0-3.0-1.95"
	},
	{
		"rt": null,
		"stimulus": "+",
		"response": null,
		"trial_type": "html-keyboard-response",
		"trial_index": 208,
		"time_elapsed": 255034,
		"internal_node_id": "0.0-3.0-0.96"
	},
	{
		"rt": 1625,
		"stimulus": "salpicado",
		"response": "s",
		"class": "a",
		"status": "noncog",
		"answer": "word",
		"correct": "S",
		"trial": "exp",
		"letters": "9",
		"trial_type": "html-keyboard-response",
		"trial_index": 209,
		"time_elapsed": 256661,
		"internal_node_id": "0.0-3.0-1.96"
	},
	{
		"rt": null,
		"stimulus": "+",
		"response": null,
		"trial_type": "html-keyboard-response",
		"trial_index": 210,
		"time_elapsed": 257165,
		"internal_node_id": "0.0-3.0-0.97"
	},
	{
		"rt": 716,
		"stimulus": "espinho",
		"response": "s",
		"class": "n",
		"status": "noncog",
		"answer": "word",
		"correct": "S",
		"trial": "exp",
		"letters": "7",
		"trial_type": "html-keyboard-response",
		"trial_index": 211,
		"time_elapsed": 257883,
		"internal_node_id": "0.0-3.0-1.97"
	},
	{
		"rt": null,
		"stimulus": "+",
		"response": null,
		"trial_type": "html-keyboard-response",
		"trial_index": 212,
		"time_elapsed": 258386,
		"internal_node_id": "0.0-3.0-0.98"
	},
	{
		"rt": 538,
		"stimulus": "aitrou",
		"response": "s",
		"class": "null",
		"status": "noncog",
		"answer": "pseudo",
		"correct": "N",
		"trial": "exp",
		"letters": "null",
		"trial_type": "html-keyboard-response",
		"trial_index": 213,
		"time_elapsed": 258929,
		"internal_node_id": "0.0-3.0-1.98"
	},
	{
		"rt": null,
		"stimulus": "+",
		"response": null,
		"trial_type": "html-keyboard-response",
		"trial_index": 214,
		"time_elapsed": 259432,
		"internal_node_id": "0.0-3.0-0.99"
	},
	{
		"rt": 1407,
		"stimulus": "vitrive",
		"response": "s",
		"class": "null",
		"status": "noncog",
		"answer": "pseudo",
		"correct": "N",
		"trial": "exp",
		"letters": "null",
		"trial_type": "html-keyboard-response",
		"trial_index": 215,
		"time_elapsed": 260841,
		"internal_node_id": "0.0-3.0-1.99"
	},
	{
		"rt": null,
		"stimulus": "+",
		"response": null,
		"trial_type": "html-keyboard-response",
		"trial_index": 216,
		"time_elapsed": 261350,
		"internal_node_id": "0.0-3.0-0.100"
	},
	{
		"rt": 757,
		"stimulus": "trabalhar",
		"response": "s",
		"class": "v",
		"status": "noncog",
		"answer": "word",
		"correct": "S",
		"trial": "exp",
		"letters": "9",
		"trial_type": "html-keyboard-response",
		"trial_index": 217,
		"time_elapsed": 262109,
		"internal_node_id": "0.0-3.0-1.100"
	},
	{
		"rt": null,
		"stimulus": "+",
		"response": null,
		"trial_type": "html-keyboard-response",
		"trial_index": 218,
		"time_elapsed": 262613,
		"internal_node_id": "0.0-3.0-0.101"
	},
	{
		"rt": 658,
		"stimulus": "carregar",
		"response": "s",
		"class": "v",
		"status": "noncog",
		"answer": "word",
		"correct": "S",
		"trial": "exp",
		"letters": "8",
		"trial_type": "html-keyboard-response",
		"trial_index": 219,
		"time_elapsed": 263273,
		"internal_node_id": "0.0-3.0-1.101"
	},
	{
		"rt": null,
		"stimulus": "+",
		"response": null,
		"trial_type": "html-keyboard-response",
		"trial_index": 220,
		"time_elapsed": 263775,
		"internal_node_id": "0.0-3.0-0.102"
	},
	{
		"rt": 905,
		"stimulus": "oricia",
		"response": "s",
		"class": "null",
		"status": "noncog",
		"answer": "pseudo",
		"correct": "N",
		"trial": "exp",
		"letters": "null",
		"trial_type": "html-keyboard-response",
		"trial_index": 221,
		"time_elapsed": 264682,
		"internal_node_id": "0.0-3.0-1.102"
	},
	{
		"rt": null,
		"stimulus": "+",
		"response": null,
		"trial_type": "html-keyboard-response",
		"trial_index": 222,
		"time_elapsed": 265195,
		"internal_node_id": "0.0-3.0-0.103"
	},
	{
		"rt": 3343,
		"stimulus": "dencosto",
		"response": "n",
		"class": "null",
		"status": "noncog",
		"answer": "pseudo",
		"correct": "N",
		"trial": "exp",
		"letters": "null",
		"trial_type": "html-keyboard-response",
		"trial_index": 223,
		"time_elapsed": 268541,
		"internal_node_id": "0.0-3.0-1.103"
	},
	{
		"rt": null,
		"stimulus": "+",
		"response": null,
		"trial_type": "html-keyboard-response",
		"trial_index": 224,
		"time_elapsed": 269058,
		"internal_node_id": "0.0-3.0-0.104"
	},
	{
		"rt": 175,
		"stimulus": "rédesa",
		"response": "s",
		"class": "null",
		"status": "noncog",
		"answer": "pseudo",
		"correct": "N",
		"trial": "exp",
		"letters": "null",
		"trial_type": "html-keyboard-response",
		"trial_index": 225,
		"time_elapsed": 269236,
		"internal_node_id": "0.0-3.0-1.104"
	},
	{
		"rt": null,
		"stimulus": "+",
		"response": null,
		"trial_type": "html-keyboard-response",
		"trial_index": 226,
		"time_elapsed": 269740,
		"internal_node_id": "0.0-3.0-0.105"
	},
	{
		"rt": 1035,
		"stimulus": "independente",
		"response": "s",
		"class": "a",
		"status": "noncog",
		"answer": "word",
		"correct": "S",
		"trial": "exp",
		"letters": "12",
		"trial_type": "html-keyboard-response",
		"trial_index": 227,
		"time_elapsed": 270777,
		"internal_node_id": "0.0-3.0-1.105"
	},
	{
		"rt": null,
		"stimulus": "+",
		"response": null,
		"trial_type": "html-keyboard-response",
		"trial_index": 228,
		"time_elapsed": 271280,
		"internal_node_id": "0.0-3.0-0.106"
	},
	{
		"rt": 751,
		"stimulus": "papai",
		"response": "s",
		"class": "n",
		"status": "cog",
		"answer": "word",
		"correct": "S",
		"trial": "exp",
		"letters": "5",
		"trial_type": "html-keyboard-response",
		"trial_index": 229,
		"time_elapsed": 272034,
		"internal_node_id": "0.0-3.0-1.106"
	},
	{
		"rt": null,
		"stimulus": "+",
		"response": null,
		"trial_type": "html-keyboard-response",
		"trial_index": 230,
		"time_elapsed": 272537,
		"internal_node_id": "0.0-3.0-0.107"
	},
	{
		"rt": 1903,
		"stimulus": "grátis",
		"response": "s",
		"class": "a",
		"status": "cog",
		"answer": "word",
		"correct": "S",
		"trial": "exp",
		"letters": "6",
		"trial_type": "html-keyboard-response",
		"trial_index": 231,
		"time_elapsed": 274445,
		"internal_node_id": "0.0-3.0-1.107"
	},
	{
		"rt": null,
		"stimulus": "+",
		"response": null,
		"trial_type": "html-keyboard-response",
		"trial_index": 232,
		"time_elapsed": 274949,
		"internal_node_id": "0.0-3.0-0.108"
	},
	{
		"rt": 2122,
		"stimulus": "casuas",
		"response": "n",
		"class": "null",
		"status": "noncog",
		"answer": "pseudo",
		"correct": "N",
		"trial": "exp",
		"letters": "null",
		"trial_type": "html-keyboard-response",
		"trial_index": 233,
		"time_elapsed": 277076,
		"internal_node_id": "0.0-3.0-1.108"
	},
	{
		"rt": null,
		"stimulus": "+",
		"response": null,
		"trial_type": "html-keyboard-response",
		"trial_index": 234,
		"time_elapsed": 277582,
		"internal_node_id": "0.0-3.0-0.109"
	},
	{
		"rt": 801,
		"stimulus": "socorro",
		"response": "s",
		"class": "n",
		"status": "noncog",
		"answer": "word",
		"correct": "S",
		"trial": "exp",
		"letters": "7",
		"trial_type": "html-keyboard-response",
		"trial_index": 235,
		"time_elapsed": 278385,
		"internal_node_id": "0.0-3.0-1.109"
	},
	{
		"rt": null,
		"stimulus": "+",
		"response": null,
		"trial_type": "html-keyboard-response",
		"trial_index": 236,
		"time_elapsed": 278888,
		"internal_node_id": "0.0-3.0-0.110"
	},
	{
		"rt": 1450,
		"stimulus": "aemaça",
		"response": "n",
		"class": "null",
		"status": "noncog",
		"answer": "pseudo",
		"correct": "N",
		"trial": "exp",
		"letters": "null",
		"trial_type": "html-keyboard-response",
		"trial_index": 237,
		"time_elapsed": 280346,
		"internal_node_id": "0.0-3.0-1.110"
	},
	{
		"rt": null,
		"stimulus": "+",
		"response": null,
		"trial_type": "html-keyboard-response",
		"trial_index": 238,
		"time_elapsed": 280848,
		"internal_node_id": "0.0-3.0-0.111"
	},
	{
		"rt": 937,
		"stimulus": "arranjar",
		"response": "s",
		"class": "v",
		"status": "cog",
		"answer": "word",
		"correct": "S",
		"trial": "exp",
		"letters": "8",
		"trial_type": "html-keyboard-response",
		"trial_index": 239,
		"time_elapsed": 281786,
		"internal_node_id": "0.0-3.0-1.111"
	},
	{
		"rt": null,
		"stimulus": "+",
		"response": null,
		"trial_type": "html-keyboard-response",
		"trial_index": 240,
		"time_elapsed": 282292,
		"internal_node_id": "0.0-3.0-0.112"
	},
	{
		"rt": 1981,
		"stimulus": "revear",
		"response": "s",
		"class": "null",
		"status": "noncog",
		"answer": "pseudo",
		"correct": "N",
		"trial": "exp",
		"letters": "null",
		"trial_type": "html-keyboard-response",
		"trial_index": 241,
		"time_elapsed": 284274,
		"internal_node_id": "0.0-3.0-1.112"
	},
	{
		"rt": null,
		"stimulus": "+",
		"response": null,
		"trial_type": "html-keyboard-response",
		"trial_index": 242,
		"time_elapsed": 284776,
		"internal_node_id": "0.0-3.0-0.113"
	},
	{
		"rt": 1921,
		"stimulus": "pneucania",
		"response": "s",
		"class": "null",
		"status": "noncog",
		"answer": "pseudo",
		"correct": "N",
		"trial": "exp",
		"letters": "null",
		"trial_type": "html-keyboard-response",
		"trial_index": 243,
		"time_elapsed": 286699,
		"internal_node_id": "0.0-3.0-1.113"
	},
	{
		"rt": null,
		"stimulus": "+",
		"response": null,
		"trial_type": "html-keyboard-response",
		"trial_index": 244,
		"time_elapsed": 287210,
		"internal_node_id": "0.0-3.0-0.114"
	},
	{
		"rt": 983,
		"stimulus": "convidado",
		"response": "s",
		"class": "n",
		"status": "noncog",
		"answer": "word",
		"correct": "S",
		"trial": "exp",
		"letters": "9",
		"trial_type": "html-keyboard-response",
		"trial_index": 245,
		"time_elapsed": 288194,
		"internal_node_id": "0.0-3.0-1.114"
	},
	{
		"rt": null,
		"stimulus": "+",
		"response": null,
		"trial_type": "html-keyboard-response",
		"trial_index": 246,
		"time_elapsed": 288698,
		"internal_node_id": "0.0-3.0-0.115"
	},
	{
		"rt": 778,
		"stimulus": "ofreta",
		"response": "s",
		"class": "null",
		"status": "noncog",
		"answer": "pseudo",
		"correct": "N",
		"trial": "exp",
		"letters": "null",
		"trial_type": "html-keyboard-response",
		"trial_index": 247,
		"time_elapsed": 289484,
		"internal_node_id": "0.0-3.0-1.115"
	},
	{
		"rt": null,
		"stimulus": "+",
		"response": null,
		"trial_type": "html-keyboard-response",
		"trial_index": 248,
		"time_elapsed": 289986,
		"internal_node_id": "0.0-3.0-0.116"
	},
	{
		"rt": 1853,
		"stimulus": "atapdar",
		"response": "n",
		"class": "null",
		"status": "noncog",
		"answer": "pseudo",
		"correct": "N",
		"trial": "exp",
		"letters": "null",
		"trial_type": "html-keyboard-response",
		"trial_index": 249,
		"time_elapsed": 291842,
		"internal_node_id": "0.0-3.0-1.116"
	},
	{
		"rt": null,
		"stimulus": "+",
		"response": null,
		"trial_type": "html-keyboard-response",
		"trial_index": 250,
		"time_elapsed": 292344,
		"internal_node_id": "0.0-3.0-0.117"
	},
	{
		"rt": 861,
		"stimulus": "francês",
		"response": "s",
		"class": "a",
		"status": "cog",
		"answer": "word",
		"correct": "S",
		"trial": "exp",
		"letters": "7",
		"trial_type": "html-keyboard-response",
		"trial_index": 251,
		"time_elapsed": 293208,
		"internal_node_id": "0.0-3.0-1.117"
	},
	{
		"rt": null,
		"stimulus": "+",
		"response": null,
		"trial_type": "html-keyboard-response",
		"trial_index": 252,
		"time_elapsed": 293711,
		"internal_node_id": "0.0-3.0-0.118"
	},
	{
		"rt": 1439,
		"stimulus": "hébies",
		"response": "s",
		"class": "null",
		"status": "noncog",
		"answer": "pseudo",
		"correct": "N",
		"trial": "exp",
		"letters": "null",
		"trial_type": "html-keyboard-response",
		"trial_index": 253,
		"time_elapsed": 295157,
		"internal_node_id": "0.0-3.0-1.118"
	},
	{
		"rt": null,
		"stimulus": "+",
		"response": null,
		"trial_type": "html-keyboard-response",
		"trial_index": 254,
		"time_elapsed": 295660,
		"internal_node_id": "0.0-3.0-0.119"
	},
	{
		"rt": 4491,
		"stimulus": "irratinte",
		"response": "n",
		"class": "null",
		"status": "noncog",
		"answer": "pseudo",
		"correct": "N",
		"trial": "exp",
		"letters": "null",
		"trial_type": "html-keyboard-response",
		"trial_index": 255,
		"time_elapsed": 300156,
		"internal_node_id": "0.0-3.0-1.119"
	},
	{
		"rt": null,
		"stimulus": "+",
		"response": null,
		"trial_type": "html-keyboard-response",
		"trial_index": 256,
		"time_elapsed": 300664,
		"internal_node_id": "0.0-3.0-0.120"
	},
	{
		"rt": 4062,
		"stimulus": "ilhure",
		"response": "n",
		"class": "null",
		"status": "noncog",
		"answer": "pseudo",
		"correct": "N",
		"trial": "exp",
		"letters": "null",
		"trial_type": "html-keyboard-response",
		"trial_index": 257,
		"time_elapsed": 304727,
		"internal_node_id": "0.0-3.0-1.120"
	},
	{
		"rt": null,
		"stimulus": "+",
		"response": null,
		"trial_type": "html-keyboard-response",
		"trial_index": 258,
		"time_elapsed": 305229,
		"internal_node_id": "0.0-3.0-0.121"
	},
	{
		"rt": 1228,
		"stimulus": "oecano",
		"response": "n",
		"class": "null",
		"status": "noncog",
		"answer": "pseudo",
		"correct": "N",
		"trial": "exp",
		"letters": "null",
		"trial_type": "html-keyboard-response",
		"trial_index": 259,
		"time_elapsed": 306460,
		"internal_node_id": "0.0-3.0-1.121"
	},
	{
		"rt": null,
		"stimulus": "+",
		"response": null,
		"trial_type": "html-keyboard-response",
		"trial_index": 260,
		"time_elapsed": 306963,
		"internal_node_id": "0.0-3.0-0.122"
	},
	{
		"rt": 830,
		"stimulus": "morija",
		"response": "s",
		"class": "null",
		"status": "noncog",
		"answer": "pseudo",
		"correct": "N",
		"trial": "exp",
		"letters": "null",
		"trial_type": "html-keyboard-response",
		"trial_index": 261,
		"time_elapsed": 307796,
		"internal_node_id": "0.0-3.0-1.122"
	},
	{
		"rt": null,
		"stimulus": "+",
		"response": null,
		"trial_type": "html-keyboard-response",
		"trial_index": 262,
		"time_elapsed": 308309,
		"internal_node_id": "0.0-3.0-0.123"
	},
	{
		"rt": 1086,
		"stimulus": "agravar",
		"response": "s",
		"class": "v",
		"status": "cog",
		"answer": "word",
		"correct": "S",
		"trial": "exp",
		"letters": "7",
		"trial_type": "html-keyboard-response",
		"trial_index": 263,
		"time_elapsed": 309398,
		"internal_node_id": "0.0-3.0-1.123"
	},
	{
		"rt": null,
		"stimulus": "+",
		"response": null,
		"trial_type": "html-keyboard-response",
		"trial_index": 264,
		"time_elapsed": 309903,
		"internal_node_id": "0.0-3.0-0.124"
	},
	{
		"rt": 1336,
		"stimulus": "fusbão",
		"response": "s",
		"class": "null",
		"status": "noncog",
		"answer": "pseudo",
		"correct": "N",
		"trial": "exp",
		"letters": "null",
		"trial_type": "html-keyboard-response",
		"trial_index": 265,
		"time_elapsed": 311241,
		"internal_node_id": "0.0-3.0-1.124"
	},
	{
		"rt": null,
		"stimulus": "+",
		"response": null,
		"trial_type": "html-keyboard-response",
		"trial_index": 266,
		"time_elapsed": 311744,
		"internal_node_id": "0.0-3.0-0.125"
	},
	{
		"rt": 779,
		"stimulus": "jantar",
		"response": "s",
		"class": "v",
		"status": "noncog",
		"answer": "word",
		"correct": "S",
		"trial": "exp",
		"letters": "6",
		"trial_type": "html-keyboard-response",
		"trial_index": 267,
		"time_elapsed": 312525,
		"internal_node_id": "0.0-3.0-1.125"
	},
	{
		"rt": null,
		"stimulus": "+",
		"response": null,
		"trial_type": "html-keyboard-response",
		"trial_index": 268,
		"time_elapsed": 313028,
		"internal_node_id": "0.0-3.0-0.126"
	},
	{
		"rt": 766,
		"stimulus": "civil",
		"response": "s",
		"class": "a",
		"status": "cog",
		"answer": "word",
		"correct": "S",
		"trial": "exp",
		"letters": "5",
		"trial_type": "html-keyboard-response",
		"trial_index": 269,
		"time_elapsed": 313796,
		"internal_node_id": "0.0-3.0-1.126"
	},
	{
		"rt": null,
		"stimulus": "+",
		"response": null,
		"trial_type": "html-keyboard-response",
		"trial_index": 270,
		"time_elapsed": 314303,
		"internal_node_id": "0.0-3.0-0.127"
	},
	{
		"rt": 1306,
		"stimulus": "espionar",
		"response": "s",
		"class": "v",
		"status": "cog",
		"answer": "word",
		"correct": "S",
		"trial": "exp",
		"letters": "8",
		"trial_type": "html-keyboard-response",
		"trial_index": 271,
		"time_elapsed": 315611,
		"internal_node_id": "0.0-3.0-1.127"
	},
	{
		"rt": null,
		"stimulus": "+",
		"response": null,
		"trial_type": "html-keyboard-response",
		"trial_index": 272,
		"time_elapsed": 316118,
		"internal_node_id": "0.0-3.0-0.128"
	},
	{
		"rt": 1083,
		"stimulus": "perbas",
		"response": "s",
		"class": "null",
		"status": "noncog",
		"answer": "pseudo",
		"correct": "N",
		"trial": "exp",
		"letters": "null",
		"trial_type": "html-keyboard-response",
		"trial_index": 273,
		"time_elapsed": 317203,
		"internal_node_id": "0.0-3.0-1.128"
	},
	{
		"rt": null,
		"stimulus": "+",
		"response": null,
		"trial_type": "html-keyboard-response",
		"trial_index": 274,
		"time_elapsed": 317705,
		"internal_node_id": "0.0-3.0-0.129"
	},
	{
		"rt": 1042,
		"stimulus": "aperor",
		"response": "s",
		"class": "null",
		"status": "noncog",
		"answer": "pseudo",
		"correct": "N",
		"trial": "exp",
		"letters": "null",
		"trial_type": "html-keyboard-response",
		"trial_index": 275,
		"time_elapsed": 318750,
		"internal_node_id": "0.0-3.0-1.129"
	},
	{
		"rt": null,
		"stimulus": "+",
		"response": null,
		"trial_type": "html-keyboard-response",
		"trial_index": 276,
		"time_elapsed": 319252,
		"internal_node_id": "0.0-3.0-0.130"
	},
	{
		"rt": 2295,
		"stimulus": "telafonir",
		"response": "s",
		"class": "null",
		"status": "noncog",
		"answer": "pseudo",
		"correct": "N",
		"trial": "exp",
		"letters": "null",
		"trial_type": "html-keyboard-response",
		"trial_index": 277,
		"time_elapsed": 321548,
		"internal_node_id": "0.0-3.0-1.130"
	},
	{
		"rt": null,
		"stimulus": "+",
		"response": null,
		"trial_type": "html-keyboard-response",
		"trial_index": 278,
		"time_elapsed": 322053,
		"internal_node_id": "0.0-3.0-0.131"
	},
	{
		"rt": 844,
		"stimulus": "comércio",
		"response": "s",
		"class": "n",
		"status": "noncog",
		"answer": "word",
		"correct": "S",
		"trial": "exp",
		"letters": "8",
		"trial_type": "html-keyboard-response",
		"trial_index": 279,
		"time_elapsed": 322902,
		"internal_node_id": "0.0-3.0-1.131"
	},
	{
		"rt": null,
		"stimulus": "+",
		"response": null,
		"trial_type": "html-keyboard-response",
		"trial_index": 280,
		"time_elapsed": 323417,
		"internal_node_id": "0.0-3.0-0.132"
	},
	{
		"rt": 872,
		"stimulus": "bandido",
		"response": "s",
		"class": "n",
		"status": "cog",
		"answer": "word",
		"correct": "S",
		"trial": "exp",
		"letters": "7",
		"trial_type": "html-keyboard-response",
		"trial_index": 281,
		"time_elapsed": 324292,
		"internal_node_id": "0.0-3.0-1.132"
	},
	{
		"rt": null,
		"stimulus": "+",
		"response": null,
		"trial_type": "html-keyboard-response",
		"trial_index": 282,
		"time_elapsed": 324796,
		"internal_node_id": "0.0-3.0-0.133"
	},
	{
		"rt": 829,
		"stimulus": "nivelado",
		"response": "s",
		"class": "a",
		"status": "cog",
		"answer": "word",
		"correct": "S",
		"trial": "exp",
		"letters": "8",
		"trial_type": "html-keyboard-response",
		"trial_index": 283,
		"time_elapsed": 325629,
		"internal_node_id": "0.0-3.0-1.133"
	},
	{
		"rt": null,
		"stimulus": "+",
		"response": null,
		"trial_type": "html-keyboard-response",
		"trial_index": 284,
		"time_elapsed": 326132,
		"internal_node_id": "0.0-3.0-0.134"
	},
	{
		"rt": 1409,
		"stimulus": "esprotiar",
		"response": "s",
		"class": "null",
		"status": "noncog",
		"answer": "pseudo",
		"correct": "N",
		"trial": "exp",
		"letters": "null",
		"trial_type": "html-keyboard-response",
		"trial_index": 285,
		"time_elapsed": 327545,
		"internal_node_id": "0.0-3.0-1.134"
	},
	{
		"rt": null,
		"stimulus": "+",
		"response": null,
		"trial_type": "html-keyboard-response",
		"trial_index": 286,
		"time_elapsed": 328049,
		"internal_node_id": "0.0-3.0-0.135"
	},
	{
		"rt": 666,
		"stimulus": "tela",
		"response": "s",
		"class": "n",
		"status": "noncog",
		"answer": "word",
		"correct": "S",
		"trial": "exp",
		"letters": "4",
		"trial_type": "html-keyboard-response",
		"trial_index": 287,
		"time_elapsed": 328717,
		"internal_node_id": "0.0-3.0-1.135"
	},
	{
		"rt": null,
		"stimulus": "+",
		"response": null,
		"trial_type": "html-keyboard-response",
		"trial_index": 288,
		"time_elapsed": 329222,
		"internal_node_id": "0.0-3.0-0.136"
	},
	{
		"rt": 969,
		"stimulus": "rovaz",
		"response": "s",
		"class": "null",
		"status": "noncog",
		"answer": "pseudo",
		"correct": "N",
		"trial": "exp",
		"letters": "null",
		"trial_type": "html-keyboard-response",
		"trial_index": 289,
		"time_elapsed": 330193,
		"internal_node_id": "0.0-3.0-1.136"
	},
	{
		"rt": null,
		"stimulus": "+",
		"response": null,
		"trial_type": "html-keyboard-response",
		"trial_index": 290,
		"time_elapsed": 330713,
		"internal_node_id": "0.0-3.0-0.137"
	},
	{
		"rt": 647,
		"stimulus": "pangos",
		"response": "s",
		"class": "null",
		"status": "noncog",
		"answer": "pseudo",
		"correct": "N",
		"trial": "exp",
		"letters": "null",
		"trial_type": "html-keyboard-response",
		"trial_index": 291,
		"time_elapsed": 331363,
		"internal_node_id": "0.0-3.0-1.137"
	},
	{
		"rt": null,
		"stimulus": "+",
		"response": null,
		"trial_type": "html-keyboard-response",
		"trial_index": 292,
		"time_elapsed": 331866,
		"internal_node_id": "0.0-3.0-0.138"
	},
	{
		"rt": 709,
		"stimulus": "aivões",
		"response": "s",
		"class": "null",
		"status": "noncog",
		"answer": "pseudo",
		"correct": "N",
		"trial": "exp",
		"letters": "null",
		"trial_type": "html-keyboard-response",
		"trial_index": 293,
		"time_elapsed": 332579,
		"internal_node_id": "0.0-3.0-1.138"
	},
	{
		"rt": null,
		"stimulus": "+",
		"response": null,
		"trial_type": "html-keyboard-response",
		"trial_index": 294,
		"time_elapsed": 333089,
		"internal_node_id": "0.0-3.0-0.139"
	},
	{
		"rt": 1120,
		"stimulus": "apontar",
		"response": "s",
		"class": "v",
		"status": "noncog",
		"answer": "word",
		"correct": "S",
		"trial": "exp",
		"letters": "7",
		"trial_type": "html-keyboard-response",
		"trial_index": 295,
		"time_elapsed": 334212,
		"internal_node_id": "0.0-3.0-1.139"
	},
	{
		"rt": null,
		"stimulus": "+",
		"response": null,
		"trial_type": "html-keyboard-response",
		"trial_index": 296,
		"time_elapsed": 334714,
		"internal_node_id": "0.0-3.0-0.140"
	},
	{
		"rt": 676,
		"stimulus": "glória",
		"response": "s",
		"class": "n",
		"status": "cog",
		"answer": "word",
		"correct": "S",
		"trial": "exp",
		"letters": "6",
		"trial_type": "html-keyboard-response",
		"trial_index": 297,
		"time_elapsed": 335397,
		"internal_node_id": "0.0-3.0-1.140"
	},
	{
		"rt": null,
		"stimulus": "+",
		"response": null,
		"trial_type": "html-keyboard-response",
		"trial_index": 298,
		"time_elapsed": 335902,
		"internal_node_id": "0.0-3.0-0.141"
	},
	{
		"rt": 559,
		"stimulus": "morno",
		"response": "s",
		"class": "a",
		"status": "noncog",
		"answer": "word",
		"correct": "S",
		"trial": "exp",
		"letters": "5",
		"trial_type": "html-keyboard-response",
		"trial_index": 299,
		"time_elapsed": 336469,
		"internal_node_id": "0.0-3.0-1.141"
	},
	{
		"rt": null,
		"stimulus": "+",
		"response": null,
		"trial_type": "html-keyboard-response",
		"trial_index": 300,
		"time_elapsed": 336976,
		"internal_node_id": "0.0-3.0-0.142"
	},
	{
		"rt": 834,
		"stimulus": "gertas",
		"response": "s",
		"class": "null",
		"status": "noncog",
		"answer": "pseudo",
		"correct": "N",
		"trial": "exp",
		"letters": "null",
		"trial_type": "html-keyboard-response",
		"trial_index": 301,
		"time_elapsed": 337812,
		"internal_node_id": "0.0-3.0-1.142"
	},
	{
		"rt": null,
		"stimulus": "+",
		"response": null,
		"trial_type": "html-keyboard-response",
		"trial_index": 302,
		"time_elapsed": 338321,
		"internal_node_id": "0.0-3.0-0.143"
	},
	{
		"rt": 610,
		"stimulus": "tartos",
		"response": "s",
		"class": "null",
		"status": "noncog",
		"answer": "pseudo",
		"correct": "N",
		"trial": "exp",
		"letters": "null",
		"trial_type": "html-keyboard-response",
		"trial_index": 303,
		"time_elapsed": 338938,
		"internal_node_id": "0.0-3.0-1.143"
	},
	{
		"rt": null,
		"stimulus": "+",
		"response": null,
		"trial_type": "html-keyboard-response",
		"trial_index": 304,
		"time_elapsed": 339440,
		"internal_node_id": "0.0-3.0-0.144"
	},
	{
		"rt": 579,
		"stimulus": "manfa",
		"response": "s",
		"class": "null",
		"status": "noncog",
		"answer": "pseudo",
		"correct": "N",
		"trial": "exp",
		"letters": "null",
		"trial_type": "html-keyboard-response",
		"trial_index": 305,
		"time_elapsed": 340022,
		"internal_node_id": "0.0-3.0-1.144"
	},
	{
		"rt": null,
		"stimulus": "+",
		"response": null,
		"trial_type": "html-keyboard-response",
		"trial_index": 306,
		"time_elapsed": 340525,
		"internal_node_id": "0.0-3.0-0.145"
	},
	{
		"rt": 814,
		"stimulus": "podilo",
		"response": "s",
		"class": "null",
		"status": "noncog",
		"answer": "pseudo",
		"correct": "N",
		"trial": "exp",
		"letters": "null",
		"trial_type": "html-keyboard-response",
		"trial_index": 307,
		"time_elapsed": 341342,
		"internal_node_id": "0.0-3.0-1.145"
	},
	{
		"rt": null,
		"stimulus": "+",
		"response": null,
		"trial_type": "html-keyboard-response",
		"trial_index": 308,
		"time_elapsed": 341859,
		"internal_node_id": "0.0-3.0-0.146"
	},
	{
		"rt": 700,
		"stimulus": "trair",
		"response": "s",
		"class": "v",
		"status": "cog",
		"answer": "word",
		"correct": "S",
		"trial": "exp",
		"letters": "5",
		"trial_type": "html-keyboard-response",
		"trial_index": 309,
		"time_elapsed": 342564,
		"internal_node_id": "0.0-3.0-1.146"
	},
	{
		"rt": null,
		"stimulus": "+",
		"response": null,
		"trial_type": "html-keyboard-response",
		"trial_index": 310,
		"time_elapsed": 343069,
		"internal_node_id": "0.0-3.0-0.147"
	},
	{
		"rt": 868,
		"stimulus": "pedaço",
		"response": "s",
		"class": "n",
		"status": "noncog",
		"answer": "word",
		"correct": "S",
		"trial": "exp",
		"letters": "6",
		"trial_type": "html-keyboard-response",
		"trial_index": 311,
		"time_elapsed": 343940,
		"internal_node_id": "0.0-3.0-1.147"
	},
	{
		"rt": null,
		"stimulus": "+",
		"response": null,
		"trial_type": "html-keyboard-response",
		"trial_index": 312,
		"time_elapsed": 344443,
		"internal_node_id": "0.0-3.0-0.148"
	},
	{
		"rt": 775,
		"stimulus": "medalha",
		"response": "s",
		"class": "n",
		"status": "cog",
		"answer": "word",
		"correct": "S",
		"trial": "exp",
		"letters": "7",
		"trial_type": "html-keyboard-response",
		"trial_index": 313,
		"time_elapsed": 345220,
		"internal_node_id": "0.0-3.0-1.148"
	},
	{
		"rt": null,
		"stimulus": "+",
		"response": null,
		"trial_type": "html-keyboard-response",
		"trial_index": 314,
		"time_elapsed": 345721,
		"internal_node_id": "0.0-3.0-0.149"
	},
	{
		"rt": 938,
		"stimulus": "mabras",
		"response": "s",
		"class": "null",
		"status": "noncog",
		"answer": "pseudo",
		"correct": "N",
		"trial": "exp",
		"letters": "null",
		"trial_type": "html-keyboard-response",
		"trial_index": 315,
		"time_elapsed": 346660,
		"internal_node_id": "0.0-3.0-1.149"
	},
	{
		"rt": null,
		"stimulus": "+",
		"response": null,
		"trial_type": "html-keyboard-response",
		"trial_index": 316,
		"time_elapsed": 347166,
		"internal_node_id": "0.0-3.0-0.150"
	},
	{
		"rt": 1580,
		"stimulus": "verceja",
		"response": "n",
		"class": "null",
		"status": "noncog",
		"answer": "pseudo",
		"correct": "N",
		"trial": "exp",
		"letters": "null",
		"trial_type": "html-keyboard-response",
		"trial_index": 317,
		"time_elapsed": 348748,
		"internal_node_id": "0.0-3.0-1.150"
	},
	{
		"rt": null,
		"stimulus": "+",
		"response": null,
		"trial_type": "html-keyboard-response",
		"trial_index": 318,
		"time_elapsed": 349250,
		"internal_node_id": "0.0-3.0-0.151"
	},
	{
		"rt": 3943,
		"stimulus": "candifência",
		"response": "s",
		"class": "null",
		"status": "noncog",
		"answer": "pseudo",
		"correct": "N",
		"trial": "exp",
		"letters": "null",
		"trial_type": "html-keyboard-response",
		"trial_index": 319,
		"time_elapsed": 353196,
		"internal_node_id": "0.0-3.0-1.151"
	},
	{
		"rt": null,
		"stimulus": "+",
		"response": null,
		"trial_type": "html-keyboard-response",
		"trial_index": 320,
		"time_elapsed": 353700,
		"internal_node_id": "0.0-3.0-0.152"
	},
	{
		"rt": 732,
		"stimulus": "chato",
		"response": "s",
		"class": "n",
		"status": "noncog",
		"answer": "word",
		"correct": "S",
		"trial": "exp",
		"letters": "5",
		"trial_type": "html-keyboard-response",
		"trial_index": 321,
		"time_elapsed": 354437,
		"internal_node_id": "0.0-3.0-1.152"
	},
	{
		"rt": null,
		"stimulus": "+",
		"response": null,
		"trial_type": "html-keyboard-response",
		"trial_index": 322,
		"time_elapsed": 354940,
		"internal_node_id": "0.0-3.0-0.153"
	},
	{
		"rt": 2687,
		"stimulus": "berquesa",
		"response": "s",
		"class": "null",
		"status": "noncog",
		"answer": "pseudo",
		"correct": "N",
		"trial": "exp",
		"letters": "null",
		"trial_type": "html-keyboard-response",
		"trial_index": 323,
		"time_elapsed": 357629,
		"internal_node_id": "0.0-3.0-1.153"
	},
	{
		"rt": null,
		"stimulus": "+",
		"response": null,
		"trial_type": "html-keyboard-response",
		"trial_index": 324,
		"time_elapsed": 358133,
		"internal_node_id": "0.0-3.0-0.154"
	},
	{
		"rt": 757,
		"stimulus": "açúcar",
		"response": "s",
		"class": "n",
		"status": "noncog",
		"answer": "word",
		"correct": "S",
		"trial": "exp",
		"letters": "6",
		"trial_type": "html-keyboard-response",
		"trial_index": 325,
		"time_elapsed": 358892,
		"internal_node_id": "0.0-3.0-1.154"
	},
	{
		"rt": null,
		"stimulus": "+",
		"response": null,
		"trial_type": "html-keyboard-response",
		"trial_index": 326,
		"time_elapsed": 359395,
		"internal_node_id": "0.0-3.0-0.155"
	},
	{
		"rt": 1513,
		"stimulus": "ronronar",
		"response": "s",
		"class": "v",
		"status": "cog",
		"answer": "word",
		"correct": "S",
		"trial": "exp",
		"letters": "8",
		"trial_type": "html-keyboard-response",
		"trial_index": 327,
		"time_elapsed": 360909,
		"internal_node_id": "0.0-3.0-1.155"
	},
	{
		"rt": null,
		"stimulus": "+",
		"response": null,
		"trial_type": "html-keyboard-response",
		"trial_index": 328,
		"time_elapsed": 361411,
		"internal_node_id": "0.0-3.0-0.156"
	},
	{
		"rt": 661,
		"stimulus": "mal",
		"response": "s",
		"class": "a",
		"status": "cog",
		"answer": "word",
		"correct": "S",
		"trial": "exp",
		"letters": "3",
		"trial_type": "html-keyboard-response",
		"trial_index": 329,
		"time_elapsed": 362078,
		"internal_node_id": "0.0-3.0-1.156"
	},
	{
		"rt": null,
		"stimulus": "+",
		"response": null,
		"trial_type": "html-keyboard-response",
		"trial_index": 330,
		"time_elapsed": 362584,
		"internal_node_id": "0.0-3.0-0.157"
	},
	{
		"rt": 1266,
		"stimulus": "temperar",
		"response": "s",
		"class": "v",
		"status": "noncog",
		"answer": "word",
		"correct": "S",
		"trial": "exp",
		"letters": "8",
		"trial_type": "html-keyboard-response",
		"trial_index": 331,
		"time_elapsed": 363852,
		"internal_node_id": "0.0-3.0-1.157"
	},
	{
		"rt": null,
		"stimulus": "+",
		"response": null,
		"trial_type": "html-keyboard-response",
		"trial_index": 332,
		"time_elapsed": 364355,
		"internal_node_id": "0.0-3.0-0.158"
	},
	{
		"rt": 1047,
		"stimulus": "cascata",
		"response": "s",
		"class": "n",
		"status": "noncog",
		"answer": "word",
		"correct": "S",
		"trial": "exp",
		"letters": "7",
		"trial_type": "html-keyboard-response",
		"trial_index": 333,
		"time_elapsed": 365404,
		"internal_node_id": "0.0-3.0-1.158"
	},
	{
		"rt": null,
		"stimulus": "+",
		"response": null,
		"trial_type": "html-keyboard-response",
		"trial_index": 334,
		"time_elapsed": 365908,
		"internal_node_id": "0.0-3.0-0.159"
	},
	{
		"rt": 3502,
		"stimulus": "hedoru",
		"response": "n",
		"class": "null",
		"status": "noncog",
		"answer": "pseudo",
		"correct": "N",
		"trial": "exp",
		"letters": "null",
		"trial_type": "html-keyboard-response",
		"trial_index": 335,
		"time_elapsed": 369413,
		"internal_node_id": "0.0-3.0-1.159"
	},
	{
		"rt": null,
		"stimulus": "+",
		"response": null,
		"trial_type": "html-keyboard-response",
		"trial_index": 336,
		"time_elapsed": 369916,
		"internal_node_id": "0.0-3.0-0.160"
	},
	{
		"rt": 8711,
		"stimulus": "gordo",
		"response": "s",
		"class": "a",
		"status": "noncog",
		"answer": "word",
		"correct": "S",
		"trial": "exp",
		"letters": "5",
		"trial_type": "html-keyboard-response",
		"trial_index": 337,
		"time_elapsed": 378629,
		"internal_node_id": "0.0-3.0-1.160"
	},
	{
		"rt": null,
		"stimulus": "+",
		"response": null,
		"trial_type": "html-keyboard-response",
		"trial_index": 338,
		"time_elapsed": 379134,
		"internal_node_id": "0.0-3.0-0.161"
	},
	{
		"rt": 3542,
		"stimulus": "tronca",
		"response": "s",
		"class": "null",
		"status": "noncog",
		"answer": "pseudo",
		"correct": "N",
		"trial": "exp",
		"letters": "null",
		"trial_type": "html-keyboard-response",
		"trial_index": 339,
		"time_elapsed": 382678,
		"internal_node_id": "0.0-3.0-1.161"
	},
	{
		"rt": null,
		"stimulus": "+",
		"response": null,
		"trial_type": "html-keyboard-response",
		"trial_index": 340,
		"time_elapsed": 383182,
		"internal_node_id": "0.0-3.0-0.162"
	},
	{
		"rt": 803,
		"stimulus": "prever",
		"response": "s",
		"class": "v",
		"status": "cog",
		"answer": "word",
		"correct": "S",
		"trial": "exp",
		"letters": "6",
		"trial_type": "html-keyboard-response",
		"trial_index": 341,
		"time_elapsed": 383986,
		"internal_node_id": "0.0-3.0-1.162"
	},
	{
		"rt": null,
		"stimulus": "+",
		"response": null,
		"trial_type": "html-keyboard-response",
		"trial_index": 342,
		"time_elapsed": 384488,
		"internal_node_id": "0.0-3.0-0.163"
	},
	{
		"rt": 851,
		"stimulus": "liso",
		"response": "s",
		"class": "n",
		"status": "noncog",
		"answer": "word",
		"correct": "S",
		"trial": "exp",
		"letters": "4",
		"trial_type": "html-keyboard-response",
		"trial_index": 343,
		"time_elapsed": 385342,
		"internal_node_id": "0.0-3.0-1.163"
	},
	{
		"rt": null,
		"stimulus": "+",
		"response": null,
		"trial_type": "html-keyboard-response",
		"trial_index": 344,
		"time_elapsed": 385847,
		"internal_node_id": "0.0-3.0-0.164"
	},
	{
		"rt": 1532,
		"stimulus": "fasdas",
		"response": "n",
		"class": "null",
		"status": "noncog",
		"answer": "pseudo",
		"correct": "N",
		"trial": "exp",
		"letters": "null",
		"trial_type": "html-keyboard-response",
		"trial_index": 345,
		"time_elapsed": 387381,
		"internal_node_id": "0.0-3.0-1.164"
	},
	{
		"rt": null,
		"stimulus": "+",
		"response": null,
		"trial_type": "html-keyboard-response",
		"trial_index": 346,
		"time_elapsed": 387884,
		"internal_node_id": "0.0-3.0-0.165"
	},
	{
		"rt": 5712,
		"stimulus": "nacional",
		"response": "s",
		"class": "a",
		"status": "cog",
		"answer": "word",
		"correct": "S",
		"trial": "exp",
		"letters": "8",
		"trial_type": "html-keyboard-response",
		"trial_index": 347,
		"time_elapsed": 393598,
		"internal_node_id": "0.0-3.0-1.165"
	},
	{
		"rt": null,
		"stimulus": "+",
		"response": null,
		"trial_type": "html-keyboard-response",
		"trial_index": 348,
		"time_elapsed": 394102,
		"internal_node_id": "0.0-3.0-0.166"
	},
	{
		"rt": 1516,
		"stimulus": "gilha",
		"response": "s",
		"class": "null",
		"status": "noncog",
		"answer": "pseudo",
		"correct": "N",
		"trial": "exp",
		"letters": "null",
		"trial_type": "html-keyboard-response",
		"trial_index": 349,
		"time_elapsed": 395624,
		"internal_node_id": "0.0-3.0-1.166"
	},
	{
		"rt": null,
		"stimulus": "+",
		"response": null,
		"trial_type": "html-keyboard-response",
		"trial_index": 350,
		"time_elapsed": 396127,
		"internal_node_id": "0.0-3.0-0.167"
	},
	{
		"rt": 1061,
		"stimulus": "promessa",
		"response": "s",
		"class": "n",
		"status": "noncog",
		"answer": "word",
		"correct": "S",
		"trial": "exp",
		"letters": "8",
		"trial_type": "html-keyboard-response",
		"trial_index": 351,
		"time_elapsed": 397190,
		"internal_node_id": "0.0-3.0-1.167"
	},
	{
		"rt": null,
		"stimulus": "+",
		"response": null,
		"trial_type": "html-keyboard-response",
		"trial_index": 352,
		"time_elapsed": 397692,
		"internal_node_id": "0.0-3.0-0.168"
	},
	{
		"rt": 864,
		"stimulus": "reduzir",
		"response": "s",
		"class": "v",
		"status": "cog",
		"answer": "word",
		"correct": "S",
		"trial": "exp",
		"letters": "7",
		"trial_type": "html-keyboard-response",
		"trial_index": 353,
		"time_elapsed": 398558,
		"internal_node_id": "0.0-3.0-1.168"
	},
	{
		"rt": null,
		"stimulus": "+",
		"response": null,
		"trial_type": "html-keyboard-response",
		"trial_index": 354,
		"time_elapsed": 399064,
		"internal_node_id": "0.0-3.0-0.169"
	},
	{
		"rt": 1581,
		"stimulus": "garastia",
		"response": "s",
		"class": "null",
		"status": "noncog",
		"answer": "pseudo",
		"correct": "N",
		"trial": "exp",
		"letters": "null",
		"trial_type": "html-keyboard-response",
		"trial_index": 355,
		"time_elapsed": 400646,
		"internal_node_id": "0.0-3.0-1.169"
	},
	{
		"rt": null,
		"stimulus": "+",
		"response": null,
		"trial_type": "html-keyboard-response",
		"trial_index": 356,
		"time_elapsed": 401149,
		"internal_node_id": "0.0-3.0-0.170"
	},
	{
		"rt": 754,
		"stimulus": "tio",
		"response": "s",
		"class": "n",
		"status": "noncog",
		"answer": "word",
		"correct": "S",
		"trial": "exp",
		"letters": "3",
		"trial_type": "html-keyboard-response",
		"trial_index": 357,
		"time_elapsed": 401909,
		"internal_node_id": "0.0-3.0-1.170"
	},
	{
		"rt": null,
		"stimulus": "+",
		"response": null,
		"trial_type": "html-keyboard-response",
		"trial_index": 358,
		"time_elapsed": 402413,
		"internal_node_id": "0.0-3.0-0.171"
	},
	{
		"rt": 2172,
		"stimulus": "ocinto",
		"response": "s",
		"class": "null",
		"status": "noncog",
		"answer": "pseudo",
		"correct": "N",
		"trial": "exp",
		"letters": "null",
		"trial_type": "html-keyboard-response",
		"trial_index": 359,
		"time_elapsed": 404586,
		"internal_node_id": "0.0-3.0-1.171"
	},
	{
		"rt": null,
		"stimulus": "+",
		"response": null,
		"trial_type": "html-keyboard-response",
		"trial_index": 360,
		"time_elapsed": 405092,
		"internal_node_id": "0.0-3.0-0.172"
	},
	{
		"rt": 1651,
		"stimulus": "bagunceira",
		"response": "s",
		"class": "a",
		"status": "noncog",
		"answer": "word",
		"correct": "S",
		"trial": "exp",
		"letters": "10",
		"trial_type": "html-keyboard-response",
		"trial_index": 361,
		"time_elapsed": 406744,
		"internal_node_id": "0.0-3.0-1.172"
	},
	{
		"rt": null,
		"stimulus": "+",
		"response": null,
		"trial_type": "html-keyboard-response",
		"trial_index": 362,
		"time_elapsed": 407251,
		"internal_node_id": "0.0-3.0-0.173"
	},
	{
		"rt": 1444,
		"stimulus": "senareta",
		"response": "s",
		"class": "null",
		"status": "noncog",
		"answer": "pseudo",
		"correct": "N",
		"trial": "exp",
		"letters": "null",
		"trial_type": "html-keyboard-response",
		"trial_index": 363,
		"time_elapsed": 408697,
		"internal_node_id": "0.0-3.0-1.173"
	},
	{
		"rt": null,
		"stimulus": "+",
		"response": null,
		"trial_type": "html-keyboard-response",
		"trial_index": 364,
		"time_elapsed": 409199,
		"internal_node_id": "0.0-3.0-0.174"
	},
	{
		"rt": 685,
		"stimulus": "pitada",
		"response": "s",
		"class": "n",
		"status": "noncog",
		"answer": "word",
		"correct": "S",
		"trial": "exp",
		"letters": "6",
		"trial_type": "html-keyboard-response",
		"trial_index": 365,
		"time_elapsed": 409886,
		"internal_node_id": "0.0-3.0-1.174"
	},
	{
		"rt": null,
		"stimulus": "+",
		"response": null,
		"trial_type": "html-keyboard-response",
		"trial_index": 366,
		"time_elapsed": 410389,
		"internal_node_id": "0.0-3.0-0.175"
	},
	{
		"rt": 1137,
		"stimulus": "afonher",
		"response": "s",
		"class": "null",
		"status": "noncog",
		"answer": "pseudo",
		"correct": "N",
		"trial": "exp",
		"letters": "null",
		"trial_type": "html-keyboard-response",
		"trial_index": 367,
		"time_elapsed": 411528,
		"internal_node_id": "0.0-3.0-1.175"
	},
	{
		"rt": null,
		"stimulus": "+",
		"response": null,
		"trial_type": "html-keyboard-response",
		"trial_index": 368,
		"time_elapsed": 412029,
		"internal_node_id": "0.0-3.0-0.176"
	},
	{
		"rt": 1050,
		"stimulus": "pega-pega",
		"response": "s",
		"class": "n",
		"status": "noncog",
		"answer": "word",
		"correct": "S",
		"trial": "exp",
		"letters": "8",
		"trial_type": "html-keyboard-response",
		"trial_index": 369,
		"time_elapsed": 413081,
		"internal_node_id": "0.0-3.0-1.176"
	},
	{
		"rt": null,
		"stimulus": "+",
		"response": null,
		"trial_type": "html-keyboard-response",
		"trial_index": 370,
		"time_elapsed": 413584,
		"internal_node_id": "0.0-3.0-0.177"
	},
	{
		"rt": 717,
		"stimulus": "pimada",
		"response": "s",
		"class": "null",
		"status": "noncog",
		"answer": "pseudo",
		"correct": "N",
		"trial": "exp",
		"letters": "null",
		"trial_type": "html-keyboard-response",
		"trial_index": 371,
		"time_elapsed": 414303,
		"internal_node_id": "0.0-3.0-1.177"
	},
	{
		"rt": null,
		"stimulus": "+",
		"response": null,
		"trial_type": "html-keyboard-response",
		"trial_index": 372,
		"time_elapsed": 414806,
		"internal_node_id": "0.0-3.0-0.178"
	},
	{
		"rt": 1821,
		"stimulus": "bracos",
		"response": "n",
		"class": "null",
		"status": "noncog",
		"answer": "pseudo",
		"correct": "N",
		"trial": "exp",
		"letters": "null",
		"trial_type": "html-keyboard-response",
		"trial_index": 373,
		"time_elapsed": 416632,
		"internal_node_id": "0.0-3.0-1.178"
	},
	{
		"rt": null,
		"stimulus": "+",
		"response": null,
		"trial_type": "html-keyboard-response",
		"trial_index": 374,
		"time_elapsed": 417137,
		"internal_node_id": "0.0-3.0-0.179"
	},
	{
		"rt": 2202,
		"stimulus": "dilheira",
		"response": "s",
		"class": "null",
		"status": "noncog",
		"answer": "pseudo",
		"correct": "N",
		"trial": "exp",
		"letters": "null",
		"trial_type": "html-keyboard-response",
		"trial_index": 375,
		"time_elapsed": 419342,
		"internal_node_id": "0.0-3.0-1.179"
	},
	{
		"rt": null,
		"stimulus": "+",
		"response": null,
		"trial_type": "html-keyboard-response",
		"trial_index": 376,
		"time_elapsed": 419846,
		"internal_node_id": "0.0-3.0-0.180"
	},
	{
		"rt": 1625,
		"stimulus": "aletiê",
		"response": "n",
		"class": "null",
		"status": "noncog",
		"answer": "pseudo",
		"correct": "N",
		"trial": "exp",
		"letters": "null",
		"trial_type": "html-keyboard-response",
		"trial_index": 377,
		"time_elapsed": 421472,
		"internal_node_id": "0.0-3.0-1.180"
	},
	{
		"rt": null,
		"stimulus": "+",
		"response": null,
		"trial_type": "html-keyboard-response",
		"trial_index": 378,
		"time_elapsed": 421974,
		"internal_node_id": "0.0-3.0-0.181"
	},
	{
		"rt": 1232,
		"stimulus": "braras",
		"response": "n",
		"class": "null",
		"status": "noncog",
		"answer": "pseudo",
		"correct": "N",
		"trial": "exp",
		"letters": "null",
		"trial_type": "html-keyboard-response",
		"trial_index": 379,
		"time_elapsed": 423207,
		"internal_node_id": "0.0-3.0-1.181"
	},
	{
		"rt": null,
		"stimulus": "+",
		"response": null,
		"trial_type": "html-keyboard-response",
		"trial_index": 380,
		"time_elapsed": 423709,
		"internal_node_id": "0.0-3.0-0.182"
	},
	{
		"rt": 3196,
		"stimulus": "promeção",
		"response": "s",
		"class": "null",
		"status": "noncog",
		"answer": "pseudo",
		"correct": "N",
		"trial": "exp",
		"letters": "null",
		"trial_type": "html-keyboard-response",
		"trial_index": 381,
		"time_elapsed": 426907,
		"internal_node_id": "0.0-3.0-1.182"
	},
	{
		"rt": null,
		"stimulus": "+",
		"response": null,
		"trial_type": "html-keyboard-response",
		"trial_index": 382,
		"time_elapsed": 427409,
		"internal_node_id": "0.0-3.0-0.183"
	},
	{
		"rt": 1964,
		"stimulus": "país",
		"response": "s",
		"class": "n",
		"status": "noncog",
		"answer": "word",
		"correct": "S",
		"trial": "exp",
		"letters": "4",
		"trial_type": "html-keyboard-response",
		"trial_index": 383,
		"time_elapsed": 429377,
		"internal_node_id": "0.0-3.0-1.183"
	},
	{
		"rt": null,
		"stimulus": "+",
		"response": null,
		"trial_type": "html-keyboard-response",
		"trial_index": 384,
		"time_elapsed": 429883,
		"internal_node_id": "0.0-3.0-0.184"
	},
	{
		"rt": 1739,
		"stimulus": "animado",
		"response": "s",
		"class": "a",
		"status": "noncog",
		"answer": "word",
		"correct": "S",
		"trial": "exp",
		"letters": "7",
		"trial_type": "html-keyboard-response",
		"trial_index": 385,
		"time_elapsed": 431624,
		"internal_node_id": "0.0-3.0-1.184"
	},
	{
		"rt": null,
		"stimulus": "+",
		"response": null,
		"trial_type": "html-keyboard-response",
		"trial_index": 386,
		"time_elapsed": 432134,
		"internal_node_id": "0.0-3.0-0.185"
	},
	{
		"rt": 1889,
		"stimulus": "mua",
		"response": "s",
		"class": "null",
		"status": "noncog",
		"answer": "pseudo",
		"correct": "N",
		"trial": "exp",
		"letters": "null",
		"trial_type": "html-keyboard-response",
		"trial_index": 387,
		"time_elapsed": 434028,
		"internal_node_id": "0.0-3.0-1.185"
	},
	{
		"rt": null,
		"stimulus": "+",
		"response": null,
		"trial_type": "html-keyboard-response",
		"trial_index": 388,
		"time_elapsed": 434533,
		"internal_node_id": "0.0-3.0-0.186"
	},
	{
		"rt": 1848,
		"stimulus": "uçar",
		"response": "s",
		"class": "null",
		"status": "noncog",
		"answer": "pseudo",
		"correct": "N",
		"trial": "exp",
		"letters": "null",
		"trial_type": "html-keyboard-response",
		"trial_index": 389,
		"time_elapsed": 436384,
		"internal_node_id": "0.0-3.0-1.186"
	},
	{
		"rt": null,
		"stimulus": "+",
		"response": null,
		"trial_type": "html-keyboard-response",
		"trial_index": 390,
		"time_elapsed": 436887,
		"internal_node_id": "0.0-3.0-0.187"
	},
	{
		"rt": 2452,
		"stimulus": "dacada",
		"response": "n",
		"class": "null",
		"status": "noncog",
		"answer": "pseudo",
		"correct": "N",
		"trial": "exp",
		"letters": "null",
		"trial_type": "html-keyboard-response",
		"trial_index": 391,
		"time_elapsed": 439341,
		"internal_node_id": "0.0-3.0-1.187"
	},
	{
		"rt": null,
		"stimulus": "+",
		"response": null,
		"trial_type": "html-keyboard-response",
		"trial_index": 392,
		"time_elapsed": 439850,
		"internal_node_id": "0.0-3.0-0.188"
	},
	{
		"rt": 767,
		"stimulus": "nome",
		"response": "s",
		"class": "n",
		"status": "cog",
		"answer": "word",
		"correct": "S",
		"trial": "exp",
		"letters": "4",
		"trial_type": "html-keyboard-response",
		"trial_index": 393,
		"time_elapsed": 440632,
		"internal_node_id": "0.0-3.0-1.188"
	},
	{
		"rt": null,
		"stimulus": "+",
		"response": null,
		"trial_type": "html-keyboard-response",
		"trial_index": 394,
		"time_elapsed": 441145,
		"internal_node_id": "0.0-3.0-0.189"
	},
	{
		"rt": 1552,
		"stimulus": "terdia",
		"response": "s",
		"class": "null",
		"status": "noncog",
		"answer": "pseudo",
		"correct": "N",
		"trial": "exp",
		"letters": "null",
		"trial_type": "html-keyboard-response",
		"trial_index": 395,
		"time_elapsed": 442701,
		"internal_node_id": "0.0-3.0-1.189"
	},
	{
		"rt": null,
		"stimulus": "+",
		"response": null,
		"trial_type": "html-keyboard-response",
		"trial_index": 396,
		"time_elapsed": 443209,
		"internal_node_id": "0.0-3.0-0.190"
	},
	{
		"rt": 1222,
		"stimulus": "euorpa",
		"response": "n",
		"class": "null",
		"status": "noncog",
		"answer": "pseudo",
		"correct": "N",
		"trial": "exp",
		"letters": "null",
		"trial_type": "html-keyboard-response",
		"trial_index": 397,
		"time_elapsed": 444434,
		"internal_node_id": "0.0-3.0-1.190"
	},
	{
		"rt": null,
		"stimulus": "+",
		"response": null,
		"trial_type": "html-keyboard-response",
		"trial_index": 398,
		"time_elapsed": 444941,
		"internal_node_id": "0.0-3.0-0.191"
	},
	{
		"rt": 2843,
		"stimulus": "plinta",
		"response": "s",
		"class": "null",
		"status": "noncog",
		"answer": "pseudo",
		"correct": "N",
		"trial": "exp",
		"letters": "null",
		"trial_type": "html-keyboard-response",
		"trial_index": 399,
		"time_elapsed": 447786,
		"internal_node_id": "0.0-3.0-1.191"
	},
	{
		"rt": null,
		"stimulus": "+",
		"response": null,
		"trial_type": "html-keyboard-response",
		"trial_index": 400,
		"time_elapsed": 448288,
		"internal_node_id": "0.0-3.0-0.192"
	},
	{
		"rt": 2272,
		"stimulus": "encelhor",
		"response": "s",
		"class": "null",
		"status": "noncog",
		"answer": "pseudo",
		"correct": "N",
		"trial": "exp",
		"letters": "null",
		"trial_type": "html-keyboard-response",
		"trial_index": 401,
		"time_elapsed": 450563,
		"internal_node_id": "0.0-3.0-1.192"
	},
	{
		"rt": null,
		"stimulus": "+",
		"response": null,
		"trial_type": "html-keyboard-response",
		"trial_index": 402,
		"time_elapsed": 451068,
		"internal_node_id": "0.0-3.0-0.193"
	},
	{
		"rt": 1585,
		"stimulus": "dipata",
		"response": "n",
		"class": "null",
		"status": "noncog",
		"answer": "pseudo",
		"correct": "N",
		"trial": "exp",
		"letters": "null",
		"trial_type": "html-keyboard-response",
		"trial_index": 403,
		"time_elapsed": 452655,
		"internal_node_id": "0.0-3.0-1.193"
	},
	{
		"rt": null,
		"stimulus": "+",
		"response": null,
		"trial_type": "html-keyboard-response",
		"trial_index": 404,
		"time_elapsed": 453158,
		"internal_node_id": "0.0-3.0-0.194"
	},
	{
		"rt": 893,
		"stimulus": "multiplicar",
		"response": "s",
		"class": "v",
		"status": "cog",
		"answer": "word",
		"correct": "S",
