"view_history","rt","trial_type","trial_index","time_elapsed","internal_node_id","stimulus","response","trial_part","trial","word","question","answer","accuracy"
"[{""page_index"":0,""viewing_time"":27135},{""page_index"":1,""viewing_time"":17704}]","44843","instructions","0","44851","0.0-0.0","","","","","","","",""
"","null","html-keyboard-response","1","45960","0.0-1.0-0.0-0.0","<span style= ""font-size:30px; font-family: monospace"">+</span>","null","fixation","","","","",""
"","12250","html-keyboard-response","2","58464","0.0-1.0-1.0","<span style=""font-size:30px; font-family: monospace"">O</span>"," ","","prac-sent","O","","",""
"","4048","html-keyboard-response","3","62767","0.0-1.0-1.1","<span style=""font-size:30px; font-family: monospace"">dia</span>"," ","","prac-sent","dia","","",""
"","2818","html-keyboard-response","4","65838","0.0-1.0-1.2","<span style=""font-size:30px; font-family: monospace"">estará</span>"," ","","prac-sent","estará","","",""
"","2466","html-keyboard-response","5","68558","0.0-1.0-1.3","<span style=""font-size:30px; font-family: monospace"">cheio</span>"," ","","prac-sent","cheio","","",""
"","1145","html-keyboard-response","6","69958","0.0-1.0-1.4","<span style=""font-size:30px; font-family: monospace"">de</span>"," ","","prac-sent","de","","",""
"","1412","html-keyboard-response","7","71631","0.0-1.0-1.5","<span style=""font-size:30px; font-family: monospace"">nuvens</span>"," ","","prac-sent","nuvens","","",""
"","7787","html-keyboard-response","8","79671","0.0-1.0-1.6","<span style=""font-size:30px; font-family: monospace"">hoje.</span>"," ","","prac-sent","hoje.","","",""
"","null","html-keyboard-response","9","80925","0.0-1.0-0.7-0.7","<span style= ""font-size:30px; font-family: monospace"">+</span>","null","fixation","","","","",""
"","3844","html-keyboard-response","10","85022","0.0-1.0-1.7","<span style=""font-size:30px; font-family: monospace"">A</span>"," ","","prac-sent","A","","",""
"","2107","html-keyboard-response","11","87382","0.0-1.0-1.8","<span style=""font-size:30px; font-family: monospace"">caneca</span>"," ","","prac-sent","caneca","","",""
"","1917","html-keyboard-response","12","89553","0.0-1.0-1.9","<span style=""font-size:30px; font-family: monospace"">colorida</span>"," ","","prac-sent","colorida","","",""
"","1996","html-keyboard-response","13","91832","0.0-1.0-1.10","<span style=""font-size:30px; font-family: monospace"">caiu</span>"," ","","prac-sent","caiu","","",""
"","2140","html-keyboard-response","14","94224","0.0-1.0-1.11","<span style=""font-size:30px; font-family: monospace"">da</span>"," ","","prac-sent","da","","",""
"","1457","html-keyboard-response","15","95935","0.0-1.0-1.12","<span style=""font-size:30px; font-family: monospace"">mesa</span>"," ","","prac-sent","mesa","","",""
"","1093","html-keyboard-response","16","97279","0.0-1.0-1.13","<span style=""font-size:30px; font-family: monospace"">de</span>"," ","","prac-sent","de","","",""
"","2458","html-keyboard-response","17","99991","0.0-1.0-1.14","<span style=""font-size:30px; font-family: monospace"">jantar.</span>"," ","","prac-comp","jantar.","","",""
"","17827","html-keyboard-response","18","118072","0.0-1.0-2.14-0.14","<span style=""font-size:30px; font-family: monospace"">A caneca permaneceu na mesa?</span>","n","","prac-comp","","A caneca permaneceu na mesa?","não","false"
"[{""page_index"":0,""viewing_time"":26075}]","26076","instructions","19","144650","0.0-2.0","","","","","","","",""
"","null","html-keyboard-response","20","145760","0.0-3.0-0.0-0.0","<span style= ""font-size:30px; font-family: monospace"">+</span>","null","fixation","","","","",""
"","1027","html-keyboard-response","21","147040","0.0-3.0-1.0","<span style=""font-size:30px; font-family: monospace"">O</span>"," ","","exp-sent","O","","",""
"","1939","html-keyboard-response","22","149233","0.0-3.0-1.1","<span style=""font-size:30px; font-family: monospace"">travesseiro</span>"," ","","exp-sent","travesseiro","","",""
"","1025","html-keyboard-response","23","150512","0.0-3.0-1.2","<span style=""font-size:30px; font-family: monospace"">era</span>"," ","","exp-sent","era","","",""
"","1562","html-keyboard-response","24","152328","0.0-3.0-1.3","<span style=""font-size:30px; font-family: monospace"">muito</span>"," ","","exp-sent","muito","","",""
"","3507","html-keyboard-response","25","156088","0.0-3.0-1.4","<span style=""font-size:30px; font-family: monospace"">macio</span>"," ","","exp-sent","macio","","",""
"","1068","html-keyboard-response","26","157408","0.0-3.0-1.5","<span style=""font-size:30px; font-family: monospace"">e</span>"," ","","exp-sent","e","","",""
"","2232","html-keyboard-response","27","159896","0.0-3.0-1.6","<span style=""font-size:30px; font-family: monospace"">confortável.</span>"," ","","exp-sent","confortável.","","",""
"","null","html-keyboard-response","28","161150","0.0-3.0-0.7-0.7","<span style= ""font-size:30px; font-family: monospace"">+</span>","null","fixation","","","","",""
"","1197","html-keyboard-response","29","162601","0.0-3.0-1.7","<span style=""font-size:30px; font-family: monospace"">Hoje</span>"," ","","exp-sent","Hoje","","",""
"","955","html-keyboard-response","30","163808","0.0-3.0-1.8","<span style=""font-size:30px; font-family: monospace"">a</span>"," ","","exp-sent","a","","",""
"","2299","html-keyboard-response","31","166361","0.0-3.0-1.9","<span style=""font-size:30px; font-family: monospace"">atendente</span>"," ","","exp-sent","atendente","","",""
"","1068","html-keyboard-response","32","167682","0.0-3.0-1.10","<span style=""font-size:30px; font-family: monospace"">estava</span>"," ","","exp-sent","estava","","",""
"","1259","html-keyboard-response","33","169193","0.0-3.0-1.11","<span style=""font-size:30px; font-family: monospace"">furiosa</span>"," ","","exp-sent","furiosa","","",""
"","1099","html-keyboard-response","34","170546","0.0-3.0-1.12","<span style=""font-size:30px; font-family: monospace"">com</span>"," ","","exp-sent","com","","",""
"","894","html-keyboard-response","35","171697","0.0-3.0-1.13","<span style=""font-size:30px; font-family: monospace"">o</span>"," ","","exp-sent","o","","",""
"","1882","html-keyboard-response","36","173833","0.0-3.0-1.14","<span style=""font-size:30px; font-family: monospace"">cliente.</span>"," ","","exp-sent","cliente.","","",""
"","null","html-keyboard-response","37","175092","0.0-3.0-0.15-0.15","<span style= ""font-size:30px; font-family: monospace"">+</span>","null","fixation","","","","",""
"","755","html-keyboard-response","38","176106","0.0-3.0-1.15","<span style=""font-size:30px; font-family: monospace"">O</span>"," ","","exp-sent","O","","",""
"","970","html-keyboard-response","39","177330","0.0-3.0-1.16","<span style=""font-size:30px; font-family: monospace"">vizinho</span>"," ","","exp-sent","vizinho","","",""
"","1040","html-keyboard-response","40","178634","0.0-3.0-1.17","<span style=""font-size:30px; font-family: monospace"">é</span>"," ","","exp-sent","é","","",""
"","929","html-keyboard-response","41","179817","0.0-3.0-1.18","<span style=""font-size:30px; font-family: monospace"">um</span>"," ","","exp-sent","um","","",""
"","2004","html-keyboard-response","42","182074","0.0-3.0-1.19","<span style=""font-size:30px; font-family: monospace"">arquiteto</span>"," ","","exp-sent","arquiteto","","",""
"","922","html-keyboard-response","43","183249","0.0-3.0-1.20","<span style=""font-size:30px; font-family: monospace"">muito</span>"," ","","exp-sent","muito","","",""
"","3008","html-keyboard-response","44","186522","0.0-3.0-1.21","<span style=""font-size:30px; font-family: monospace"">excêntrico.</span>"," ","","exp-sent","excêntrico.","","",""
"","null","html-keyboard-response","45","187778","0.0-3.0-0.22-0.22","<span style= ""font-size:30px; font-family: monospace"">+</span>","null","fixation","","","","",""
"","810","html-keyboard-response","46","188841","0.0-3.0-1.22","<span style=""font-size:30px; font-family: monospace"">A</span>"," ","","exp-sent","A","","",""
"","948","html-keyboard-response","47","190042","0.0-3.0-1.23","<span style=""font-size:30px; font-family: monospace"">nossa</span>"," ","","exp-sent","nossa","","",""
"","914","html-keyboard-response","48","191209","0.0-3.0-1.24","<span style=""font-size:30px; font-family: monospace"">colega</span>"," ","","exp-sent","colega","","",""
"","875","html-keyboard-response","49","192337","0.0-3.0-1.25","<span style=""font-size:30px; font-family: monospace"">foi</span>"," ","","exp-sent","foi","","",""
"","915","html-keyboard-response","50","193506","0.0-3.0-1.26","<span style=""font-size:30px; font-family: monospace"">má</span>"," ","","exp-sent","má","","",""
"","1043","html-keyboard-response","51","194802","0.0-3.0-1.27","<span style=""font-size:30px; font-family: monospace"">com</span>"," ","","exp-sent","com","","",""
"","948","html-keyboard-response","52","196003","0.0-3.0-1.28","<span style=""font-size:30px; font-family: monospace"">as</span>"," ","","exp-sent","as","","",""
"","3228","html-keyboard-response","53","199483","0.0-3.0-1.29","<span style=""font-size:30px; font-family: monospace"">crianças.</span>"," ","","exp-sent","crianças.","","",""
"","null","html-keyboard-response","54","200736","0.0-3.0-0.30-0.30","<span style= ""font-size:30px; font-family: monospace"">+</span>","null","fixation","","","","",""
"","828","html-keyboard-response","55","201817","0.0-3.0-1.30","<span style=""font-size:30px; font-family: monospace"">Virtudes</span>"," ","","exp-sent","Virtudes","","",""
"","827","html-keyboard-response","56","202906","0.0-3.0-1.31","<span style=""font-size:30px; font-family: monospace"">não</span>"," ","","exp-sent","não","","",""
"","746","html-keyboard-response","57","203906","0.0-3.0-1.32","<span style=""font-size:30px; font-family: monospace"">são</span>"," ","","exp-sent","são","","",""
"","1192","html-keyboard-response","58","205354","0.0-3.0-1.33","<span style=""font-size:30px; font-family: monospace"">preguiça,</span>"," ","","exp-sent","preguiça,","","",""
"","898","html-keyboard-response","59","206506","0.0-3.0-1.34","<span style=""font-size:30px; font-family: monospace"">gula</span>"," ","","exp-sent","gula","","",""
"","922","html-keyboard-response","60","207682","0.0-3.0-1.35","<span style=""font-size:30px; font-family: monospace"">nem</span>"," ","","exp-sent","nem","","",""
"","5340","html-keyboard-response","61","213274","0.0-3.0-1.36","<span style=""font-size:30px; font-family: monospace"">ganância.</span>"," ","","comp","ganância.","","",""
"","11380","html-keyboard-response","62","224907","0.0-3.0-2.36-0.36","<span style=""font-size:30px; font-family: monospace"">Preguiça é uma virtude?</span>","n","","comp","","Preguiça é uma virtude?","não","false"
"","null","html-keyboard-response","63","226412","0.0-3.0-0.37-0.37","<span style= ""font-size:30px; font-family: monospace"">+</span>","null","fixation","","","","",""
"","2081","html-keyboard-response","64","228746","0.0-3.0-1.37","<span style=""font-size:30px; font-family: monospace"">Ele</span>"," ","","exp-sent","Ele","","",""
"","812","html-keyboard-response","65","229810","0.0-3.0-1.38","<span style=""font-size:30px; font-family: monospace"">é</span>"," ","","exp-sent","é","","",""
"","771","html-keyboard-response","66","230834","0.0-3.0-1.39","<span style=""font-size:30px; font-family: monospace"">um</span>"," ","","exp-sent","um","","",""
"","964","html-keyboard-response","67","232050","0.0-3.0-1.40","<span style=""font-size:30px; font-family: monospace"">pai</span>"," ","","exp-sent","pai","","",""
"","1475","html-keyboard-response","68","233778","0.0-3.0-1.41","<span style=""font-size:30px; font-family: monospace"">ausente</span>"," ","","exp-sent","ausente","","",""
"","779","html-keyboard-response","69","234810","0.0-3.0-1.42","<span style=""font-size:30px; font-family: monospace"">e</span>"," ","","exp-sent","e","","",""
"","805","html-keyboard-response","70","235867","0.0-3.0-1.43","<span style=""font-size:30px; font-family: monospace"">muito</span>"," ","","exp-sent","muito","","",""
"","1299","html-keyboard-response","71","237419","0.0-3.0-1.44","<span style=""font-size:30px; font-family: monospace"">fofoqueiro.</span>"," ","","exp-sent","fofoqueiro.","","",""
"","null","html-keyboard-response","72","238674","0.0-3.0-0.45-0.45","<span style= ""font-size:30px; font-family: monospace"">+</span>","null","fixation","","","","",""
"","629","html-keyboard-response","73","239555","0.0-3.0-1.45","<span style=""font-size:30px; font-family: monospace"">O</span>"," ","","exp-sent","O","","",""
"","851","html-keyboard-response","74","240658","0.0-3.0-1.46","<span style=""font-size:30px; font-family: monospace"">filho</span>"," ","","exp-sent","filho","","",""
"","1107","html-keyboard-response","75","242018","0.0-3.0-1.47","<span style=""font-size:30px; font-family: monospace"">lavou</span>"," ","","exp-sent","lavou","","",""
"","779","html-keyboard-response","76","243051","0.0-3.0-1.48","<span style=""font-size:30px; font-family: monospace"">a</span>"," ","","exp-sent","a","","",""
"","2171","html-keyboard-response","77","245475","0.0-3.0-1.49","<span style=""font-size:30px; font-family: monospace"">roupa</span>"," ","","exp-sent","roupa","","",""
"","644","html-keyboard-response","78","246371","0.0-3.0-1.50","<span style=""font-size:30px; font-family: monospace"">sem</span>"," ","","exp-sent","sem","","",""
"","739","html-keyboard-response","79","247363","0.0-3.0-1.51","<span style=""font-size:30px; font-family: monospace"">nenhuma</span>"," ","","exp-sent","nenhuma","","",""
"","1289","html-keyboard-response","80","248907","0.0-3.0-1.52","<span style=""font-size:30px; font-family: monospace"">ajuda.</span>"," ","","exp-sent","ajuda.","","",""
"","null","html-keyboard-response","81","250172","0.0-3.0-0.53-0.53","<span style= ""font-size:30px; font-family: monospace"">+</span>","null","fixation","","","","",""
"","641","html-keyboard-response","82","251076","0.0-3.0-1.53","<span style=""font-size:30px; font-family: monospace"">O</span>"," ","","exp-sent","O","","",""
"","811","html-keyboard-response","83","252143","0.0-3.0-1.54","<span style=""font-size:30px; font-family: monospace"">menino</span>"," ","","exp-sent","menino","","",""
"","704","html-keyboard-response","84","253099","0.0-3.0-1.55","<span style=""font-size:30px; font-family: monospace"">quebrou</span>"," ","","exp-sent","quebrou","","",""
"","788","html-keyboard-response","85","254140","0.0-3.0-1.56","<span style=""font-size:30px; font-family: monospace"">a</span>"," ","","exp-sent","a","","",""
"","1250","html-keyboard-response","86","255644","0.0-3.0-1.57","<span style=""font-size:30px; font-family: monospace"">perna</span>"," ","","exp-sent","perna","","",""
"","803","html-keyboard-response","87","256699","0.0-3.0-1.58","<span style=""font-size:30px; font-family: monospace"">nos</span>"," ","","exp-sent","nos","","",""
"","1341","html-keyboard-response","88","258292","0.0-3.0-1.59","<span style=""font-size:30px; font-family: monospace"">esportes.</span>"," ","","exp-sent","esportes.","","",""
"","null","html-keyboard-response","89","259546","0.0-3.0-0.60-0.60","<span style= ""font-size:30px; font-family: monospace"">+</span>","null","fixation","","","","",""
"","1839","html-keyboard-response","90","261636","0.0-3.0-1.60","<span style=""font-size:30px; font-family: monospace"">Ela</span>"," ","","exp-sent","Ela","","",""
"","722","html-keyboard-response","91","262611","0.0-3.0-1.61","<span style=""font-size:30px; font-family: monospace"">brincou</span>"," ","","exp-sent","brincou","","",""
"","931","html-keyboard-response","92","263795","0.0-3.0-1.62","<span style=""font-size:30px; font-family: monospace"">com</span>"," ","","exp-sent","com","","",""
"","1042","html-keyboard-response","93","265091","0.0-3.0-1.63","<span style=""font-size:30px; font-family: monospace"">uma</span>"," ","","exp-sent","uma","","",""
"","2084","html-keyboard-response","94","267429","0.0-3.0-1.64","<span style=""font-size:30px; font-family: monospace"">menina</span>"," ","","exp-sent","menina","","",""
"","1570","html-keyboard-response","95","269253","0.0-3.0-1.65","<span style=""font-size:30px; font-family: monospace"">da</span>"," ","","exp-sent","da","","",""
"","2323","html-keyboard-response","96","271828","0.0-3.0-1.66","<span style=""font-size:30px; font-family: monospace"">turma.</span>"," ","","exp-sent","turma.","","",""
"","null","html-keyboard-response","97","273083","0.0-3.0-0.67-0.67","<span style= ""font-size:30px; font-family: monospace"">+</span>","null","fixation","","","","",""
"","856","html-keyboard-response","98","274204","0.0-3.0-1.67","<span style=""font-size:30px; font-family: monospace"">Ele</span>"," ","","exp-sent","Ele","","",""
"","869","html-keyboard-response","99","275327","0.0-3.0-1.68","<span style=""font-size:30px; font-family: monospace"">esteve</span>"," ","","exp-sent","esteve","","",""
"","848","html-keyboard-response","100","276428","0.0-3.0-1.69","<span style=""font-size:30px; font-family: monospace"">no</span>"," ","","exp-sent","no","","",""
"","1201","html-keyboard-response","101","277884","0.0-3.0-1.70","<span style=""font-size:30px; font-family: monospace"">escritório</span>"," ","","exp-sent","escritório","","",""
"","794","html-keyboard-response","102","278939","0.0-3.0-1.71","<span style=""font-size:30px; font-family: monospace"">o</span>"," ","","exp-sent","o","","",""
"","1436","html-keyboard-response","103","280628","0.0-3.0-1.72","<span style=""font-size:30px; font-family: monospace"">dia</span>"," ","","exp-sent","dia","","",""
"","755","html-keyboard-response","104","281638","0.0-3.0-1.73","<span style=""font-size:30px; font-family: monospace"">inteiro.</span>"," ","","comp","inteiro.","","",""
"","3010","html-keyboard-response","105","284901","0.0-3.0-2.73-0.73","<span style=""font-size:30px; font-family: monospace"">Ele esteve no parque o dia inteiro?</span>","n","","comp","","Ele esteve no parque o dia inteiro?","não","false"
"","null","html-keyboard-response","106","286406","0.0-3.0-0.74-0.74","<span style= ""font-size:30px; font-family: monospace"">+</span>","null","fixation","","","","",""
"","1410","html-keyboard-response","107","288068","0.0-3.0-1.74","<span style=""font-size:30px; font-family: monospace"">No</span>"," ","","exp-sent","No","","",""
"","818","html-keyboard-response","108","289140","0.0-3.0-1.75","<span style=""font-size:30px; font-family: monospace"">passado</span>"," ","","exp-sent","passado","","",""
"","900","html-keyboard-response","109","290293","0.0-3.0-1.76","<span style=""font-size:30px; font-family: monospace"">houve</span>"," ","","exp-sent","houve","","",""
"","1033","html-keyboard-response","110","291580","0.0-3.0-1.77","<span style=""font-size:30px; font-family: monospace"">uma</span>"," ","","exp-sent","uma","","",""
"","1315","html-keyboard-response","111","293148","0.0-3.0-1.78","<span style=""font-size:30px; font-family: monospace"">rebelião</span>"," ","","exp-sent","rebelião","","",""
"","860","html-keyboard-response","112","294261","0.0-3.0-1.79","<span style=""font-size:30px; font-family: monospace"">nesta</span>"," ","","exp-sent","nesta","","",""
"","1386","html-keyboard-response","113","295900","0.0-3.0-1.80","<span style=""font-size:30px; font-family: monospace"">cidade.</span>"," ","","exp-sent","cidade.","","",""
"","null","html-keyboard-response","114","297154","0.0-3.0-0.81-0.81","<span style= ""font-size:30px; font-family: monospace"">+</span>","null","fixation","","","","",""
"","635","html-keyboard-response","115","298052","0.0-3.0-1.81","<span style=""font-size:30px; font-family: monospace"">Ele</span>"," ","","exp-sent","Ele","","",""
"","865","html-keyboard-response","116","299173","0.0-3.0-1.82","<span style=""font-size:30px; font-family: monospace"">fundou</span>"," ","","exp-sent","fundou","","",""
"","674","html-keyboard-response","117","300101","0.0-3.0-1.83","<span style=""font-size:30px; font-family: monospace"">uma</span>"," ","","exp-sent","uma","","",""
"","867","html-keyboard-response","118","301221","0.0-3.0-1.84","<span style=""font-size:30px; font-family: monospace"">empresa</span>"," ","","exp-sent","empresa","","",""
"","811","html-keyboard-response","119","302285","0.0-3.0-1.85","<span style=""font-size:30px; font-family: monospace"">privada</span>"," ","","exp-sent","privada","","",""
"","786","html-keyboard-response","120","303324","0.0-3.0-1.86","<span style=""font-size:30px; font-family: monospace"">sem</span>"," ","","exp-sent","sem","","",""
"","932","html-keyboard-response","121","304510","0.0-3.0-1.87","<span style=""font-size:30px; font-family: monospace"">ajuda.</span>"," ","","exp-sent","ajuda.","","",""
"","null","html-keyboard-response","122","305765","0.0-3.0-0.88-0.88","<span style= ""font-size:30px; font-family: monospace"">+</span>","null","fixation","","","","",""
"","1237","html-keyboard-response","123","307255","0.0-3.0-1.88","<span style=""font-size:30px; font-family: monospace"">As</span>"," ","","exp-sent","As","","",""
"","712","html-keyboard-response","124","308220","0.0-3.0-1.89","<span style=""font-size:30px; font-family: monospace"">meninas</span>"," ","","exp-sent","meninas","","",""
"","1027","html-keyboard-response","125","309501","0.0-3.0-1.90","<span style=""font-size:30px; font-family: monospace"">encontraram</span>"," ","","exp-sent","encontraram","","",""
"","628","html-keyboard-response","126","310381","0.0-3.0-1.91","<span style=""font-size:30px; font-family: monospace"">um</span>"," ","","exp-sent","um","","",""
"","755","html-keyboard-response","127","311389","0.0-3.0-1.92","<span style=""font-size:30px; font-family: monospace"">rato</span>"," ","","exp-sent","rato","","",""
"","852","html-keyboard-response","128","312493","0.0-3.0-1.93","<span style=""font-size:30px; font-family: monospace"">dentro</span>"," ","","exp-sent","dentro","","",""
"","659","html-keyboard-response","129","313405","0.0-3.0-1.94","<span style=""font-size:30px; font-family: monospace"">de</span>"," ","","exp-sent","de","","",""
"","939","html-keyboard-response","130","314597","0.0-3.0-1.95","<span style=""font-size:30px; font-family: monospace"">casa.</span>"," ","","exp-sent","casa.","","",""
"","null","html-keyboard-response","131","315853","0.0-3.0-0.96-0.96","<span style= ""font-size:30px; font-family: monospace"">+</span>","null","fixation","","","","",""
"","652","html-keyboard-response","132","316757","0.0-3.0-1.96","<span style=""font-size:30px; font-family: monospace"">O</span>"," ","","exp-sent","O","","",""
"","699","html-keyboard-response","133","317710","0.0-3.0-1.97","<span style=""font-size:30px; font-family: monospace"">texto</span>"," ","","exp-sent","texto","","",""
"","746","html-keyboard-response","134","318709","0.0-3.0-1.98","<span style=""font-size:30px; font-family: monospace"">tinha</span>"," ","","exp-sent","tinha","","",""
"","676","html-keyboard-response","135","319637","0.0-3.0-1.99","<span style=""font-size:30px; font-family: monospace"">ideias</span>"," ","","exp-sent","ideias","","",""
"","811","html-keyboard-response","136","320702","0.0-3.0-1.100","<span style=""font-size:30px; font-family: monospace"">vagas</span>"," ","","exp-sent","vagas","","",""
"","675","html-keyboard-response","137","321630","0.0-3.0-1.101","<span style=""font-size:30px; font-family: monospace"">e</span>"," ","","exp-sent","e","","",""
"","747","html-keyboard-response","138","322631","0.0-3.0-1.102","<span style=""font-size:30px; font-family: monospace"">confusas.</span>"," ","","exp-sent","confusas.","","",""
"","null","html-keyboard-response","139","323886","0.0-3.0-0.103-0.103","<span style= ""font-size:30px; font-family: monospace"">+</span>","null","fixation","","","","",""
"","459","html-keyboard-response","140","324599","0.0-3.0-1.103","<span style=""font-size:30px; font-family: monospace"">As</span>"," ","","exp-sent","As","","",""
"","667","html-keyboard-response","141","325519","0.0-3.0-1.104","<span style=""font-size:30px; font-family: monospace"">crianças</span>"," ","","exp-sent","crianças","","",""
"","626","html-keyboard-response","142","326398","0.0-3.0-1.105","<span style=""font-size:30px; font-family: monospace"">viram</span>"," ","","exp-sent","viram","","",""
"","809","html-keyboard-response","143","327462","0.0-3.0-1.106","<span style=""font-size:30px; font-family: monospace"">a</span>"," ","","exp-sent","a","","",""
"","1451","html-keyboard-response","144","329166","0.0-3.0-1.107","<span style=""font-size:30px; font-family: monospace"">acrobata</span>"," ","","exp-sent","acrobata","","",""
"","975","html-keyboard-response","145","330400","0.0-3.0-1.108","<span style=""font-size:30px; font-family: monospace"">talentosa</span>"," ","","exp-sent","talentosa","","",""
"","889","html-keyboard-response","146","331542","0.0-3.0-1.109","<span style=""font-size:30px; font-family: monospace"">no</span>"," ","","exp-sent","no","","",""
"","1867","html-keyboard-response","147","333663","0.0-3.0-1.110","<span style=""font-size:30px; font-family: monospace"">circo.</span>"," ","","comp","circo.","","",""
"","13730","html-keyboard-response","148","347647","0.0-3.0-2.110-0.110","<span style=""font-size:30px; font-family: monospace"">As crianças viram o palhaço no circo?</span>","n","","comp","","As crianças viram o palhaço no circo?","não","false"
"","null","html-keyboard-response","149","349152","0.0-3.0-0.111-0.111","<span style= ""font-size:30px; font-family: monospace"">+</span>","null","fixation","","","","",""
"","1729","html-keyboard-response","150","351134","0.0-3.0-1.111","<span style=""font-size:30px; font-family: monospace"">Barulho</span>"," ","","exp-sent","Barulho","","",""
"","771","html-keyboard-response","151","352158","0.0-3.0-1.112","<span style=""font-size:30px; font-family: monospace"">de</span>"," ","","exp-sent","de","","",""
"","946","html-keyboard-response","152","353358","0.0-3.0-1.113","<span style=""font-size:30px; font-family: monospace"">carros</span>"," ","","exp-sent","carros","","",""
"","876","html-keyboard-response","153","354486","0.0-3.0-1.114","<span style=""font-size:30px; font-family: monospace"">é</span>"," ","","exp-sent","é","","",""
"","1779","html-keyboard-response","154","356518","0.0-3.0-1.115","<span style=""font-size:30px; font-family: monospace"">irritante</span>"," ","","exp-sent","irritante","","",""
"","779","html-keyboard-response","155","357550","0.0-3.0-1.116","<span style=""font-size:30px; font-family: monospace"">para</span>"," ","","exp-sent","para","","",""
"","902","html-keyboard-response","156","358718","0.0-3.0-1.117","<span style=""font-size:30px; font-family: monospace"">a</span>"," ","","exp-sent","a","","",""
"","1868","html-keyboard-response","157","360840","0.0-3.0-1.118","<span style=""font-size:30px; font-family: monospace"">moça.</span>"," ","","exp-sent","moça.","","",""
"","null","html-keyboard-response","158","362093","0.0-3.0-0.119-0.119","<span style= ""font-size:30px; font-family: monospace"">+</span>","null","fixation","","","","",""
"","748","html-keyboard-response","159","363095","0.0-3.0-1.119","<span style=""font-size:30px; font-family: monospace"">A</span>"," ","","exp-sent","A","","",""
"","867","html-keyboard-response","160","364214","0.0-3.0-1.120","<span style=""font-size:30px; font-family: monospace"">loja</span>"," ","","exp-sent","loja","","",""
"","958","html-keyboard-response","161","365424","0.0-3.0-1.121","<span style=""font-size:30px; font-family: monospace"">também</span>"," ","","exp-sent","também","","",""
"","1058","html-keyboard-response","162","366735","0.0-3.0-1.122","<span style=""font-size:30px; font-family: monospace"">vende</span>"," ","","exp-sent","vende","","",""
"","979","html-keyboard-response","163","367967","0.0-3.0-1.123","<span style=""font-size:30px; font-family: monospace"">taça</span>"," ","","exp-sent","taça","","",""
"","690","html-keyboard-response","164","368911","0.0-3.0-1.124","<span style=""font-size:30px; font-family: monospace"">de</span>"," ","","exp-sent","de","","",""
"","1042","html-keyboard-response","165","370207","0.0-3.0-1.125","<span style=""font-size:30px; font-family: monospace"">vinho</span>"," ","","exp-sent","vinho","","",""
"","636","html-keyboard-response","166","371095","0.0-3.0-1.126","<span style=""font-size:30px; font-family: monospace"">e</span>"," ","","exp-sent","e","","",""
"","1444","html-keyboard-response","167","372792","0.0-3.0-1.127","<span style=""font-size:30px; font-family: monospace"">espumante.</span>"," ","","exp-sent","espumante.","","",""
"","null","html-keyboard-response","168","374045","0.0-3.0-0.128-0.128","<span style= ""font-size:30px; font-family: monospace"">+</span>","null","fixation","","","","",""
"","779","html-keyboard-response","169","375079","0.0-3.0-1.128","<span style=""font-size:30px; font-family: monospace"">A</span>"," ","","exp-sent","A","","",""
"","940","html-keyboard-response","170","376271","0.0-3.0-1.129","<span style=""font-size:30px; font-family: monospace"">bruxa</span>"," ","","exp-sent","bruxa","","",""
"","1188","html-keyboard-response","171","377711","0.0-3.0-1.130","<span style=""font-size:30px; font-family: monospace"">tinha</span>"," ","","exp-sent","tinha","","",""
"","1032","html-keyboard-response","172","379000","0.0-3.0-1.131","<span style=""font-size:30px; font-family: monospace"">uma</span>"," ","","exp-sent","uma","","",""
"","2419","html-keyboard-response","173","381672","0.0-3.0-1.132","<span style=""font-size:30px; font-family: monospace"">vassoura</span>"," ","","exp-sent","vassoura","","",""
"","714","html-keyboard-response","174","382641","0.0-3.0-1.133","<span style=""font-size:30px; font-family: monospace"">e</span>"," ","","exp-sent","e","","",""
"","871","html-keyboard-response","175","383768","0.0-3.0-1.134","<span style=""font-size:30px; font-family: monospace"">um</span>"," ","","exp-sent","um","","",""
"","1761","html-keyboard-response","176","385784","0.0-3.0-1.135","<span style=""font-size:30px; font-family: monospace"">gato.</span>"," ","","exp-sent","gato.","","",""
"","null","html-keyboard-response","177","387039","0.0-3.0-0.136-0.136","<span style= ""font-size:30px; font-family: monospace"">+</span>","null","fixation","","","","",""
"","699","html-keyboard-response","178","387993","0.0-3.0-1.136","<span style=""font-size:30px; font-family: monospace"">Eu</span>"," ","","exp-sent","Eu","","",""
"","707","html-keyboard-response","179","388952","0.0-3.0-1.137","<span style=""font-size:30px; font-family: monospace"">me</span>"," ","","exp-sent","me","","",""
"","899","html-keyboard-response","180","390104","0.0-3.0-1.138","<span style=""font-size:30px; font-family: monospace"">divirto</span>"," ","","exp-sent","divirto","","",""
"","836","html-keyboard-response","181","391193","0.0-3.0-1.139","<span style=""font-size:30px; font-family: monospace"">em</span>"," ","","exp-sent","em","","",""
"","1162","html-keyboard-response","182","392607","0.0-3.0-1.140","<span style=""font-size:30px; font-family: monospace"">festas</span>"," ","","exp-sent","festas","","",""
"","716","html-keyboard-response","183","393576","0.0-3.0-1.141","<span style=""font-size:30px; font-family: monospace"">de</span>"," ","","exp-sent","de","","",""
"","1087","html-keyboard-response","184","394921","0.0-3.0-1.142","<span style=""font-size:30px; font-family: monospace"">criança.</span>"," ","","exp-sent","criança.","","",""
"","null","html-keyboard-response","185","396181","0.0-3.0-0.143-0.143","<span style= ""font-size:30px; font-family: monospace"">+</span>","null","fixation","","","","",""
"","614","html-keyboard-response","186","397048","0.0-3.0-1.143","<span style=""font-size:30px; font-family: monospace"">A</span>"," ","","exp-sent","A","","",""
"","775","html-keyboard-response","187","398088","0.0-3.0-1.144","<span style=""font-size:30px; font-family: monospace"">janela</span>"," ","","exp-sent","janela","","",""
"","1010","html-keyboard-response","188","399352","0.0-3.0-1.145","<span style=""font-size:30px; font-family: monospace"">alta</span>"," ","","exp-sent","alta","","",""
"","2324","html-keyboard-response","189","401930","0.0-3.0-1.146","<span style=""font-size:30px; font-family: monospace"">estava</span>"," ","","exp-sent","estava","","",""
"","2905","html-keyboard-response","190","405088","0.0-3.0-1.147","<span style=""font-size:30px; font-family: monospace"">quebrada</span>"," ","","exp-sent","quebrada","","",""
"","731","html-keyboard-response","191","406072","0.0-3.0-1.148","<span style=""font-size:30px; font-family: monospace"">desde</span>"," ","","exp-sent","desde","","",""
"","4445","html-keyboard-response","192","410769","0.0-3.0-1.149","<span style=""font-size:30px; font-family: monospace"">ontem.</span>"," ","","comp","ontem.","","",""
"","7518","html-keyboard-response","193","418540","0.0-3.0-2.149-0.149","<span style=""font-size:30px; font-family: monospace"">A janela alta estava quebrada?</span>","s","","comp","","A janela alta estava quebrada?","sim","false"
"","null","html-keyboard-response","194","420045","0.0-3.0-0.150-0.150","<span style= ""font-size:30px; font-family: monospace"">+</span>","null","fixation","","","","",""
"","2622","html-keyboard-response","195","422921","0.0-3.0-1.150","<span style=""font-size:30px; font-family: monospace"">Preciso</span>"," ","","exp-sent","Preciso","","",""
"","1619","html-keyboard-response","196","424793","0.0-3.0-1.151","<span style=""font-size:30px; font-family: monospace"">de</span>"," ","","exp-sent","de","","",""
"","1196","html-keyboard-response","197","426241","0.0-3.0-1.152","<span style=""font-size:30px; font-family: monospace"">um</span>"," ","","exp-sent","um","","",""
"","960","html-keyboard-response","198","427456","0.0-3.0-1.153","<span style=""font-size:30px; font-family: monospace"">relatório</span>"," ","","exp-sent","relatório","","",""
"","1324","html-keyboard-response","199","429033","0.0-3.0-1.154","<span style=""font-size:30px; font-family: monospace"">oficial</span>"," ","","exp-sent","oficial","","",""
"","823","html-keyboard-response","200","430113","0.0-3.0-1.155","<span style=""font-size:30px; font-family: monospace"">para</span>"," ","","exp-sent","para","","",""
"","1058","html-keyboard-response","201","431425","0.0-3.0-1.156","<span style=""font-size:30px; font-family: monospace"">amanhã.</span>"," ","","exp-sent","amanhã.","","",""
"","null","html-keyboard-response","202","432678","0.0-3.0-0.157-0.157","<span style= ""font-size:30px; font-family: monospace"">+</span>","null","fixation","","","","",""
"","207","html-keyboard-response","203","433138","0.0-3.0-1.157","<span style=""font-size:30px; font-family: monospace"">Ele</span>"," ","","exp-sent","Ele","","",""
"","763","html-keyboard-response","204","434154","0.0-3.0-1.158","<span style=""font-size:30px; font-family: monospace"">viu</span>"," ","","exp-sent","viu","","",""
"","1274","html-keyboard-response","205","435681","0.0-3.0-1.159","<span style=""font-size:30px; font-family: monospace"">um</span>"," ","","exp-sent","um","","",""
"","2922","html-keyboard-response","206","438857","0.0-3.0-1.160","<span style=""font-size:30px; font-family: monospace"">inseto</span>"," ","","exp-sent","inseto","","",""
"","796","html-keyboard-response","207","439905","0.0-3.0-1.161","<span style=""font-size:30px; font-family: monospace"">marrom</span>"," ","","exp-sent","marrom","","",""
"","1003","html-keyboard-response","208","441162","0.0-3.0-1.162","<span style=""font-size:30px; font-family: monospace"">na</span>"," ","","exp-sent","na","","",""
"","1908","html-keyboard-response","209","443322","0.0-3.0-1.163","<span style=""font-size:30px; font-family: monospace"">parede.</span>"," ","","exp-sent","parede.","","",""
"","null","html-keyboard-response","210","444577","0.0-3.0-0.164-0.164","<span style= ""font-size:30px; font-family: monospace"">+</span>","null","fixation","","","","",""
"","726","html-keyboard-response","211","445557","0.0-3.0-1.164","<span style=""font-size:30px; font-family: monospace"">O</span>"," ","","exp-sent","O","","",""
"","759","html-keyboard-response","212","446569","0.0-3.0-1.165","<span style=""font-size:30px; font-family: monospace"">avô</span>"," ","","exp-sent","avô","","",""
"","752","html-keyboard-response","213","447577","0.0-3.0-1.166","<span style=""font-size:30px; font-family: monospace"">fez</span>"," ","","exp-sent","fez","","",""
"","960","html-keyboard-response","214","448793","0.0-3.0-1.167","<span style=""font-size:30px; font-family: monospace"">uma</span>"," ","","exp-sent","uma","","",""
"","1036","html-keyboard-response","215","450082","0.0-3.0-1.168","<span style=""font-size:30px; font-family: monospace"">lista</span>"," ","","exp-sent","lista","","",""
"","764","html-keyboard-response","216","451098","0.0-3.0-1.169","<span style=""font-size:30px; font-family: monospace"">de</span>"," ","","exp-sent","de","","",""
"","708","html-keyboard-response","217","452058","0.0-3.0-1.170","<span style=""font-size:30px; font-family: monospace"">compras</span>"," ","","exp-sent","compras","","",""
"","626","html-keyboard-response","218","452937","0.0-3.0-1.171","<span style=""font-size:30px; font-family: monospace"">do</span>"," ","","exp-sent","do","","",""
"","3065","html-keyboard-response","219","456258","0.0-3.0-1.172","<span style=""font-size:30px; font-family: monospace"">mercado.</span>"," ","","exp-sent","mercado.","","",""
"","null","html-keyboard-response","220","457513","0.0-3.0-0.173-0.173","<span style= ""font-size:30px; font-family: monospace"">+</span>","null","fixation","","","","",""
"","658","html-keyboard-response","221","458426","0.0-3.0-1.173","<span style=""font-size:30px; font-family: monospace"">As</span>"," ","","exp-sent","As","","",""
"","738","html-keyboard-response","222","459417","0.0-3.0-1.174","<span style=""font-size:30px; font-family: monospace"">pessoas</span>"," ","","exp-sent","pessoas","","",""
"","743","html-keyboard-response","223","460427","0.0-3.0-1.175","<span style=""font-size:30px; font-family: monospace"">não</span>"," ","","exp-sent","não","","",""
"","1089","html-keyboard-response","224","461770","0.0-3.0-1.176","<span style=""font-size:30px; font-family: monospace"">enviam</span>"," ","","exp-sent","enviam","","",""
"","1634","html-keyboard-response","225","463657","0.0-3.0-1.177","<span style=""font-size:30px; font-family: monospace"">telegrama</span>"," ","","exp-sent","telegrama","","",""
"","651","html-keyboard-response","226","464562","0.0-3.0-1.178","<span style=""font-size:30px; font-family: monospace"">nos</span>"," ","","exp-sent","nos","","",""
"","731","html-keyboard-response","227","465545","0.0-3.0-1.179","<span style=""font-size:30px; font-family: monospace"">dias</span>"," ","","exp-sent","dias","","",""
"","624","html-keyboard-response","228","466426","0.0-3.0-1.180","<span style=""font-size:30px; font-family: monospace"">de</span>"," ","","exp-sent","de","","",""
"","2235","html-keyboard-response","229","468914","0.0-3.0-1.181","<span style=""font-size:30px; font-family: monospace"">hoje.</span>"," ","","exp-sent","hoje.","","",""
"","null","html-keyboard-response","230","470167","0.0-3.0-0.182-0.182","<span style= ""font-size:30px; font-family: monospace"">+</span>","null","fixation","","","","",""
"","639","html-keyboard-response","231","471059","0.0-3.0-1.182","<span style=""font-size:30px; font-family: monospace"">Ele</span>"," ","","exp-sent","Ele","","",""
"","763","html-keyboard-response","232","472074","0.0-3.0-1.183","<span style=""font-size:30px; font-family: monospace"">não</span>"," ","","exp-sent","não","","",""
"","783","html-keyboard-response","233","473122","0.0-3.0-1.184","<span style=""font-size:30px; font-family: monospace"">gosta</span>"," ","","exp-sent","gosta","","",""
"","834","html-keyboard-response","234","474210","0.0-3.0-1.185","<span style=""font-size:30px; font-family: monospace"">de</span>"," ","","exp-sent","de","","",""
"","755","html-keyboard-response","235","475218","0.0-3.0-1.186","<span style=""font-size:30px; font-family: monospace"">tomate</span>"," ","","exp-sent","tomate","","",""
"","826","html-keyboard-response","236","476298","0.0-3.0-1.187","<span style=""font-size:30px; font-family: monospace"">misturado</span>"," ","","exp-sent","misturado","","",""
"","714","html-keyboard-response","237","477266","0.0-3.0-1.188","<span style=""font-size:30px; font-family: monospace"">na</span>"," ","","exp-sent","na","","",""
"","867","html-keyboard-response","238","478386","0.0-3.0-1.189","<span style=""font-size:30px; font-family: monospace"">comida.</span>"," ","","comp","comida.","","",""
"","5922","html-keyboard-response","239","484563","0.0-3.0-2.189-0.189","<span style=""font-size:30px; font-family: monospace"">Ele gosta de tomate na comida?</span>","n","","comp","","Ele gosta de tomate na comida?","não","false"
"","null","html-keyboard-response","240","486073","0.0-3.0-0.190-0.190","<span style= ""font-size:30px; font-family: monospace"">+</span>","null","fixation","","","","",""
"","42914","html-keyboard-response","241","529242","0.0-3.0-1.190","<span style=""font-size:30px; font-family: monospace"">Este</span>"," ","","exp-sent","Este","","",""
"","3546","html-keyboard-response","242","533042","0.0-3.0-1.191","<span style=""font-size:30px; font-family: monospace"">conto</span>"," ","","exp-sent","conto","","",""
"","720","html-keyboard-response","243","534016","0.0-3.0-1.192","<span style=""font-size:30px; font-family: monospace"">tem</span>"," ","","exp-sent","tem","","",""
"","1372","html-keyboard-response","244","535644","0.0-3.0-1.193","<span style=""font-size:30px; font-family: monospace"">um</span>"," ","","exp-sent","um","","",""
"","1676","html-keyboard-response","245","537588","0.0-3.0-1.194","<span style=""font-size:30px; font-family: monospace"">final</span>"," ","","exp-sent","final","","",""
"","1010","html-keyboard-response","246","538851","0.0-3.0-1.195","<span style=""font-size:30px; font-family: monospace"">perfeito.</span>"," ","","exp-sent","perfeito.","","",""
"","null","html-keyboard-response","247","540118","0.0-3.0-0.196-0.196","<span style= ""font-size:30px; font-family: monospace"">+</span>","null","fixation","","","","",""
"","2297","html-keyboard-response","248","542668","0.0-3.0-1.196","<span style=""font-size:30px; font-family: monospace"">Ele</span>"," ","","exp-sent","Ele","","",""
"","773","html-keyboard-response","249","543693","0.0-3.0-1.197","<span style=""font-size:30px; font-family: monospace"">precisa</span>"," ","","exp-sent","precisa","","",""
"","795","html-keyboard-response","250","544742","0.0-3.0-1.198","<span style=""font-size:30px; font-family: monospace"">de</span>"," ","","exp-sent","de","","",""
"","865","html-keyboard-response","251","545861","0.0-3.0-1.199","<span style=""font-size:30px; font-family: monospace"">um</span>"," ","","exp-sent","um","","",""
"","1570","html-keyboard-response","252","547684","0.0-3.0-1.200","<span style=""font-size:30px; font-family: monospace"">protetor</span>"," ","","exp-sent","protetor","","",""
"","815","html-keyboard-response","253","548753","0.0-3.0-1.201","<span style=""font-size:30px; font-family: monospace"">de</span>"," ","","exp-sent","de","","",""
"","1741","html-keyboard-response","254","550748","0.0-3.0-1.202","<span style=""font-size:30px; font-family: monospace"">ouvido.</span>"," ","","exp-sent","ouvido.","","",""
"","null","html-keyboard-response","255","552003","0.0-3.0-0.203-0.203","<span style= ""font-size:30px; font-family: monospace"">+</span>","null","fixation","","","","",""
"","5455","html-keyboard-response","256","557723","0.0-3.0-1.203","<span style=""font-size:30px; font-family: monospace"">Os</span>"," ","","exp-sent","Os","","",""
"","864","html-keyboard-response","257","558842","0.0-3.0-1.204","<span style=""font-size:30px; font-family: monospace"">hábitos</span>"," ","","exp-sent","hábitos","","",""
"","709","html-keyboard-response","258","559805","0.0-3.0-1.205","<span style=""font-size:30px; font-family: monospace"">de</span>"," ","","exp-sent","de","","",""
"","1062","html-keyboard-response","259","561121","0.0-3.0-1.206","<span style=""font-size:30px; font-family: monospace"">lugares</span>"," ","","exp-sent","lugares","","",""
"","925","html-keyboard-response","260","562298","0.0-3.0-1.207","<span style=""font-size:30px; font-family: monospace"">diferentes</span>"," ","","exp-sent","diferentes","","",""
"","728","html-keyboard-response","261","563280","0.0-3.0-1.208","<span style=""font-size:30px; font-family: monospace"">são</span>"," ","","exp-sent","são","","",""
"","748","html-keyboard-response","262","564282","0.0-3.0-1.209","<span style=""font-size:30px; font-family: monospace"">muito</span>"," ","","exp-sent","muito","","",""
"","1903","html-keyboard-response","263","566437","0.0-3.0-1.210","<span style=""font-size:30px; font-family: monospace"">lindos.</span>"," ","","exp-sent","lindos.","","",""
"","null","html-keyboard-response","264","567698","0.0-3.0-0.211-0.211","<span style= ""font-size:30px; font-family: monospace"">+</span>","null","fixation","","","","",""
"","521","html-keyboard-response","265","568475","0.0-3.0-1.211","<span style=""font-size:30px; font-family: monospace"">O</span>"," ","","exp-sent","O","","",""
"","634","html-keyboard-response","266","569368","0.0-3.0-1.212","<span style=""font-size:30px; font-family: monospace"">médico</span>"," ","","exp-sent","médico","","",""
"","1158","html-keyboard-response","267","570780","0.0-3.0-1.213","<span style=""font-size:30px; font-family: monospace"">corrigiu</span>"," ","","exp-sent","corrigiu","","",""
"","841","html-keyboard-response","268","571876","0.0-3.0-1.214","<span style=""font-size:30px; font-family: monospace"">a</span>"," ","","exp-sent","a","","",""
"","802","html-keyboard-response","269","572939","0.0-3.0-1.215","<span style=""font-size:30px; font-family: monospace"">postura</span>"," ","","exp-sent","postura","","",""
"","879","html-keyboard-response","270","574077","0.0-3.0-1.216","<span style=""font-size:30px; font-family: monospace"">das</span>"," ","","exp-sent","das","","",""
"","743","html-keyboard-response","271","575075","0.0-3.0-1.217","<span style=""font-size:30px; font-family: monospace"">costas</span>"," ","","exp-sent","costas","","",""
"","766","html-keyboard-response","272","576096","0.0-3.0-1.218","<span style=""font-size:30px; font-family: monospace"">da</span>"," ","","exp-sent","da","","",""
"","755","html-keyboard-response","273","577106","0.0-3.0-1.219","<span style=""font-size:30px; font-family: monospace"">pessoa.</span>"," ","","exp-sent","pessoa.","","",""
"","null","html-keyboard-response","274","578361","0.0-3.0-0.220-0.220","<span style= ""font-size:30px; font-family: monospace"">+</span>","null","fixation","","","","",""
"","759","html-keyboard-response","275","579378","0.0-3.0-1.220","<span style=""font-size:30px; font-family: monospace"">Aquele</span>"," ","","exp-sent","Aquele","","",""
"","779","html-keyboard-response","276","580417","0.0-3.0-1.221","<span style=""font-size:30px; font-family: monospace"">era</span>"," ","","exp-sent","era","","",""
"","473","html-keyboard-response","277","581144","0.0-3.0-1.222","<span style=""font-size:30px; font-family: monospace"">um</span>"," ","","exp-sent","um","","",""
"","526","html-keyboard-response","278","581932","0.0-3.0-1.223","<span style=""font-size:30px; font-family: monospace"">caso</span>"," ","","exp-sent","caso","","",""
"","526","html-keyboard-response","279","582716","0.0-3.0-1.224","<span style=""font-size:30px; font-family: monospace"">real</span>"," ","","exp-sent","real","","",""
"","538","html-keyboard-response","280","583510","0.0-3.0-1.225","<span style=""font-size:30px; font-family: monospace"">de</span>"," ","","exp-sent","de","","",""
"","612","html-keyboard-response","281","584380","0.0-3.0-1.226","<span style=""font-size:30px; font-family: monospace"">sequestro</span>"," ","","exp-sent","sequestro","","",""
"","783","html-keyboard-response","282","585418","0.0-3.0-1.227","<span style=""font-size:30px; font-family: monospace"">premeditado.</span>"," ","","comp","premeditado.","","",""
"","8104","html-keyboard-response","283","593812","0.0-3.0-2.227-0.227","<span style=""font-size:30px; font-family: monospace"">Aquele era um caso real de roubo?</span>","n","","comp","","Aquele era um caso real de roubo?","não","false"
"","null","html-keyboard-response","284","595325","0.0-3.0-0.228-0.228","<span style= ""font-size:30px; font-family: monospace"">+</span>","null","fixation","","","","",""
"","2162","html-keyboard-response","285","597742","0.0-3.0-1.228","<span style=""font-size:30px; font-family: monospace"">Ganhamos</span>"," ","","exp-sent","Ganhamos","","",""
"","727","html-keyboard-response","286","598724","0.0-3.0-1.229","<span style=""font-size:30px; font-family: monospace"">passagem</span>"," ","","exp-sent","passagem","","",""
"","588","html-keyboard-response","287","599566","0.0-3.0-1.230","<span style=""font-size:30px; font-family: monospace"">para</span>"," ","","exp-sent","para","","",""
"","522","html-keyboard-response","288","600343","0.0-3.0-1.231","<span style=""font-size:30px; font-family: monospace"">uma</span>"," ","","exp-sent","uma","","",""
"","496","html-keyboard-response","289","601092","0.0-3.0-1.232","<span style=""font-size:30px; font-family: monospace"">viagem</span>"," ","","exp-sent","viagem","","",""
"","482","html-keyboard-response","290","601829","0.0-3.0-1.233","<span style=""font-size:30px; font-family: monospace"">de</span>"," ","","exp-sent","de","","",""
"","491","html-keyboard-response","291","602573","0.0-3.0-1.234","<span style=""font-size:30px; font-family: monospace"">férias.</span>"," ","","exp-sent","férias.","","",""
"","null","html-keyboard-response","292","603826","0.0-3.0-0.235-0.235","<span style= ""font-size:30px; font-family: monospace"">+</span>","null","fixation","","","","",""
"","818","html-keyboard-response","293","604904","0.0-3.0-1.235","<span style=""font-size:30px; font-family: monospace"">Caiu</span>"," ","","exp-sent","Caiu","","",""
"","580","html-keyboard-response","294","605738","0.0-3.0-1.236","<span style=""font-size:30px; font-family: monospace"">algo</span>"," ","","exp-sent","algo","","",""
"","522","html-keyboard-response","295","606515","0.0-3.0-1.237","<span style=""font-size:30px; font-family: monospace"">no</span>"," ","","exp-sent","no","","",""
"","457","html-keyboard-response","296","607226","0.0-3.0-1.238","<span style=""font-size:30px; font-family: monospace"">meu</span>"," ","","exp-sent","meu","","",""
"","463","html-keyboard-response","297","607950","0.0-3.0-1.239","<span style=""font-size:30px; font-family: monospace"">olho</span>"," ","","exp-sent","olho","","",""
"","531","html-keyboard-response","298","608738","0.0-3.0-1.240","<span style=""font-size:30px; font-family: monospace"">ontem</span>"," ","","exp-sent","ontem","","",""
"","592","html-keyboard-response","299","609584","0.0-3.0-1.241","<span style=""font-size:30px; font-family: monospace"">de</span>"," ","","exp-sent","de","","",""
"","599","html-keyboard-response","300","610452","0.0-3.0-1.242","<span style=""font-size:30px; font-family: monospace"">tarde.</span>"," ","","exp-sent","tarde.","","",""
"","null","html-keyboard-response","301","611713","0.0-3.0-0.243-0.243","<span style= ""font-size:30px; font-family: monospace"">+</span>","null","fixation","","","","",""
"","731","html-keyboard-response","302","612699","0.0-3.0-1.243","<span style=""font-size:30px; font-family: monospace"">Não</span>"," ","","exp-sent","Não","","",""
"","691","html-keyboard-response","303","613646","0.0-3.0-1.244","<span style=""font-size:30px; font-family: monospace"">havia</span>"," ","","exp-sent","havia","","",""
"","616","html-keyboard-response","304","614524","0.0-3.0-1.245","<span style=""font-size:30px; font-family: monospace"">mais</span>"," ","","exp-sent","mais","","",""
"","515","html-keyboard-response","305","615294","0.0-3.0-1.246","<span style=""font-size:30px; font-family: monospace"">nenhum</span>"," ","","exp-sent","nenhum","","",""
"","565","html-keyboard-response","306","616114","0.0-3.0-1.247","<span style=""font-size:30px; font-family: monospace"">ingresso</span>"," ","","exp-sent","ingresso","","",""
"","577","html-keyboard-response","307","616946","0.0-3.0-1.248","<span style=""font-size:30px; font-family: monospace"">para</span>"," ","","exp-sent","para","","",""
"","674","html-keyboard-response","308","617876","0.0-3.0-1.249","<span style=""font-size:30px; font-family: monospace"">o</span>"," ","","exp-sent","o","","",""
"","595","html-keyboard-response","309","618725","0.0-3.0-1.250","<span style=""font-size:30px; font-family: monospace"">evento.</span>"," ","","exp-sent","evento.","","",""
"","null","html-keyboard-response","310","619980","0.0-3.0-0.251-0.251","<span style= ""font-size:30px; font-family: monospace"">+</span>","null","fixation","","","","",""
"","685","html-keyboard-response","311","620926","0.0-3.0-1.251","<span style=""font-size:30px; font-family: monospace"">A</span>"," ","","exp-sent","A","","",""
"","607","html-keyboard-response","312","621787","0.0-3.0-1.252","<span style=""font-size:30px; font-family: monospace"">médica</span>"," ","","exp-sent","médica","","",""
"","984","html-keyboard-response","313","623026","0.0-3.0-1.253","<span style=""font-size:30px; font-family: monospace"">descobriu</span>"," ","","exp-sent","descobriu","","",""
"","739","html-keyboard-response","314","624021","0.0-3.0-1.254","<span style=""font-size:30px; font-family: monospace"">uma</span>"," ","","exp-sent","uma","","",""
"","900","html-keyboard-response","315","625179","0.0-3.0-1.255","<span style=""font-size:30px; font-family: monospace"">cura</span>"," ","","exp-sent","cura","","",""
"","776","html-keyboard-response","316","626212","0.0-3.0-1.256","<span style=""font-size:30px; font-family: monospace"">para</span>"," ","","exp-sent","para","","",""
"","759","html-keyboard-response","317","627227","0.0-3.0-1.257","<span style=""font-size:30px; font-family: monospace"">a</span>"," ","","exp-sent","a","","",""
"","1802","html-keyboard-response","318","629284","0.0-3.0-1.258","<span style=""font-size:30px; font-family: monospace"">doença.</span>"," ","","exp-sent","doença.","","",""
"","null","html-keyboard-response","319","630540","0.0-3.0-0.259-0.259","<span style= ""font-size:30px; font-family: monospace"">+</span>","null","fixation","","","","",""
"","731","html-keyboard-response","320","631524","0.0-3.0-1.259","<span style=""font-size:30px; font-family: monospace"">O</span>"," ","","exp-sent","O","","",""
"","820","html-keyboard-response","321","632600","0.0-3.0-1.260","<span style=""font-size:30px; font-family: monospace"">menino</span>"," ","","exp-sent","menino","","",""
"","804","html-keyboard-response","322","633663","0.0-3.0-1.261","<span style=""font-size:30px; font-family: monospace"">riscou</span>"," ","","exp-sent","riscou","","",""
"","1023","html-keyboard-response","323","634940","0.0-3.0-1.262","<span style=""font-size:30px; font-family: monospace"">o</span>"," ","","exp-sent","o","","",""
"","1002","html-keyboard-response","324","636204","0.0-3.0-1.263","<span style=""font-size:30px; font-family: monospace"">caderno</span>"," ","","exp-sent","caderno","","",""
"","773","html-keyboard-response","325","637236","0.0-3.0-1.264","<span style=""font-size:30px; font-family: monospace"">com</span>"," ","","exp-sent","com","","",""
"","769","html-keyboard-response","326","638261","0.0-3.0-1.265","<span style=""font-size:30px; font-family: monospace"">a</span>"," ","","exp-sent","a","","",""
"","2455","html-keyboard-response","327","640972","0.0-3.0-1.266","<span style=""font-size:30px; font-family: monospace"">caneta.</span>"," ","","comp","caneta.","","",""
"","3039","html-keyboard-response","328","644270","0.0-3.0-2.266-0.266","<span style=""font-size:30px; font-family: monospace"">O menino riscou a parede com a caneta?</span>","n","","comp","","O menino riscou a parede com a caneta?","não","false"
"","null","html-keyboard-response","329","645778","0.0-3.0-0.267-0.267","<span style= ""font-size:30px; font-family: monospace"">+</span>","null","fixation","","","","",""
"","1114","html-keyboard-response","330","647147","0.0-3.0-1.267","<span style=""font-size:30px; font-family: monospace"">O</span>"," ","","exp-sent","O","","",""
"","652","html-keyboard-response","331","648054","0.0-3.0-1.268","<span style=""font-size:30px; font-family: monospace"">moço</span>"," ","","exp-sent","moço","","",""
"","694","html-keyboard-response","332","649003","0.0-3.0-1.269","<span style=""font-size:30px; font-family: monospace"">usou</span>"," ","","exp-sent","usou","","",""
"","506","html-keyboard-response","333","649766","0.0-3.0-1.270","<span style=""font-size:30px; font-family: monospace"">várias</span>"," ","","exp-sent","várias","","",""
"","648","html-keyboard-response","334","650669","0.0-3.0-1.271","<span style=""font-size:30px; font-family: monospace"">velas</span>"," ","","exp-sent","velas","","",""
"","524","html-keyboard-response","335","651453","0.0-3.0-1.272","<span style=""font-size:30px; font-family: monospace"">no</span>"," ","","exp-sent","no","","",""
"","542","html-keyboard-response","336","652250","0.0-3.0-1.273","<span style=""font-size:30px; font-family: monospace"">enfeite</span>"," ","","exp-sent","enfeite","","",""
"","489","html-keyboard-response","337","652998","0.0-3.0-1.274","<span style=""font-size:30px; font-family: monospace"">de</span>"," ","","exp-sent","de","","",""
"","1445","html-keyboard-response","338","654700","0.0-3.0-1.275","<span style=""font-size:30px; font-family: monospace"">mesa.</span>"," ","","exp-sent","mesa.","","",""
"","null","html-keyboard-response","339","655954","0.0-3.0-0.276-0.276","<span style= ""font-size:30px; font-family: monospace"">+</span>","null","fixation","","","","",""
"","1539","html-keyboard-response","340","657749","0.0-3.0-1.276","<span style=""font-size:30px; font-family: monospace"">Gostamos</span>"," ","","exp-sent","Gostamos","","",""
"","529","html-keyboard-response","341","658533","0.0-3.0-1.277","<span style=""font-size:30px; font-family: monospace"">de</span>"," ","","exp-sent","de","","",""
"","555","html-keyboard-response","342","659342","0.0-3.0-1.278","<span style=""font-size:30px; font-family: monospace"">suco</span>"," ","","exp-sent","suco","","",""
"","560","html-keyboard-response","343","660158","0.0-3.0-1.279","<span style=""font-size:30px; font-family: monospace"">em</span>"," ","","exp-sent","em","","",""
"","1117","html-keyboard-response","344","661528","0.0-3.0-1.280","<span style=""font-size:30px; font-family: monospace"">garrafa</span>"," ","","exp-sent","garrafa","","",""
"","461","html-keyboard-response","345","662246","0.0-3.0-1.281","<span style=""font-size:30px; font-family: monospace"">de</span>"," ","","exp-sent","de","","",""
"","698","html-keyboard-response","346","663196","0.0-3.0-1.282","<span style=""font-size:30px; font-family: monospace"">tamanho</span>"," ","","exp-sent","tamanho","","",""
"","1640","html-keyboard-response","347","665093","0.0-3.0-1.283","<span style=""font-size:30px; font-family: monospace"">pequeno.</span>"," ","","exp-sent","pequeno.","","",""
"","null","html-keyboard-response","348","666360","0.0-3.0-0.284-0.284","<span style= ""font-size:30px; font-family: monospace"">+</span>","null","fixation","","","","",""
"","677","html-keyboard-response","349","667293","0.0-3.0-1.284","<span style=""font-size:30px; font-family: monospace"">Sua</span>"," ","","exp-sent","Sua","","",""
"","710","html-keyboard-response","350","668257","0.0-3.0-1.285","<span style=""font-size:30px; font-family: monospace"">filha</span>"," ","","exp-sent","filha","","",""
"","624","html-keyboard-response","351","669136","0.0-3.0-1.286","<span style=""font-size:30px; font-family: monospace"">é</span>"," ","","exp-sent","é","","",""
"","652","html-keyboard-response","352","670044","0.0-3.0-1.287","<span style=""font-size:30px; font-family: monospace"">muito</span>"," ","","exp-sent","muito","","",""
"","552","html-keyboard-response","353","670854","0.0-3.0-1.288","<span style=""font-size:30px; font-family: monospace"">capaz</span>"," ","","exp-sent","capaz","","",""
"","639","html-keyboard-response","354","671750","0.0-3.0-1.289","<span style=""font-size:30px; font-family: monospace"">e</span>"," ","","exp-sent","e","","",""
"","1888","html-keyboard-response","355","673893","0.0-3.0-1.290","<span style=""font-size:30px; font-family: monospace"">esforçada.</span>"," ","","exp-sent","esforçada.","","",""
"","null","html-keyboard-response","356","675147","0.0-3.0-0.291-0.291","<span style= ""font-size:30px; font-family: monospace"">+</span>","null","fixation","","","","",""
"","749","html-keyboard-response","357","676151","0.0-3.0-1.291","<span style=""font-size:30px; font-family: monospace"">A</span>"," ","","exp-sent","A","","",""
"","935","html-keyboard-response","358","677341","0.0-3.0-1.292","<span style=""font-size:30px; font-family: monospace"">batida</span>"," ","","exp-sent","batida","","",""
"","870","html-keyboard-response","359","678465","0.0-3.0-1.293","<span style=""font-size:30px; font-family: monospace"">causou</span>"," ","","exp-sent","causou","","",""
"","806","html-keyboard-response","360","679531","0.0-3.0-1.294","<span style=""font-size:30px; font-family: monospace"">muita</span>"," ","","exp-sent","muita","","",""
"","716","html-keyboard-response","361","680514","0.0-3.0-1.295","<span style=""font-size:30px; font-family: monospace"">confusão</span>"," ","","exp-sent","confusão","","",""
"","629","html-keyboard-response","362","681397","0.0-3.0-1.296","<span style=""font-size:30px; font-family: monospace"">na</span>"," ","","exp-sent","na","","",""
"","924","html-keyboard-response","363","682578","0.0-3.0-1.297","<span style=""font-size:30px; font-family: monospace"">estrada.</span>"," ","","exp-sent","estrada.","","",""
"","null","html-keyboard-response","364","683832","0.0-3.0-0.298-0.298","<span style= ""font-size:30px; font-family: monospace"">+</span>","null","fixation","","","","",""
"","739","html-keyboard-response","365","684824","0.0-3.0-1.298","<span style=""font-size:30px; font-family: monospace"">Eu</span>"," ","","exp-sent","Eu","","",""
"","564","html-keyboard-response","366","685640","0.0-3.0-1.299","<span style=""font-size:30px; font-family: monospace"">cozinhei</span>"," ","","exp-sent","cozinhei","","",""
"","619","html-keyboard-response","367","686512","0.0-3.0-1.300","<span style=""font-size:30px; font-family: monospace"">um</span>"," ","","exp-sent","um","","",""
"","566","html-keyboard-response","368","687330","0.0-3.0-1.301","<span style=""font-size:30px; font-family: monospace"">almoço</span>"," ","","exp-sent","almoço","","",""
"","1143","html-keyboard-response","369","688729","0.0-3.0-1.302","<span style=""font-size:30px; font-family: monospace"">nutritivo</span>"," ","","exp-sent","nutritivo","","",""
"","643","html-keyboard-response","370","689624","0.0-3.0-1.303","<span style=""font-size:30px; font-family: monospace"">para</span>"," ","","exp-sent","para","","",""
"","1321","html-keyboard-response","371","691198","0.0-3.0-1.304","<span style=""font-size:30px; font-family: monospace"">hoje.</span>"," ","","comp","hoje.","","",""
"","5255","html-keyboard-response","372","696710","0.0-3.0-2.304-0.304","<span style=""font-size:30px; font-family: monospace"">O almoço era nutritivo?</span>","s","","comp","","O almoço era nutritivo?","sim","false"
"","null","html-keyboard-response","373","698217","0.0-3.0-0.305-0.305","<span style= ""font-size:30px; font-family: monospace"">+</span>","null","fixation","","","","",""
"","1345","html-keyboard-response","374","699816","0.0-3.0-1.305","<span style=""font-size:30px; font-family: monospace"">A</span>"," ","","exp-sent","A","","",""
"","695","html-keyboard-response","375","700766","0.0-3.0-1.306","<span style=""font-size:30px; font-family: monospace"">força</span>"," ","","exp-sent","força","","",""
"","1060","html-keyboard-response","376","702083","0.0-3.0-1.307","<span style=""font-size:30px; font-family: monospace"">d'água</span>"," ","","exp-sent","d'água","","",""
"","617","html-keyboard-response","377","702954","0.0-3.0-1.308","<span style=""font-size:30px; font-family: monospace"">estava</span>"," ","","exp-sent","estava","","",""
"","656","html-keyboard-response","378","703866","0.0-3.0-1.309","<span style=""font-size:30px; font-family: monospace"">normal</span>"," ","","exp-sent","normal","","",""
"","619","html-keyboard-response","379","704761","0.0-3.0-1.310","<span style=""font-size:30px; font-family: monospace"">naquele</span>"," ","","exp-sent","naquele","","",""
"","587","html-keyboard-response","380","705601","0.0-3.0-1.311","<span style=""font-size:30px; font-family: monospace"">dia.</span>"," ","","exp-sent","dia.","","",""
"","null","html-keyboard-response","381","706855","0.0-3.0-0.312-0.312","<span style= ""font-size:30px; font-family: monospace"">+</span>","null","fixation","","","","",""
"","510","html-keyboard-response","382","707617","0.0-3.0-1.312","<span style=""font-size:30px; font-family: monospace"">A</span>"," ","","exp-sent","A","","",""
"","583","html-keyboard-response","383","708455","0.0-3.0-1.313","<span style=""font-size:30px; font-family: monospace"">médica</span>"," ","","exp-sent","médica","","",""
"","622","html-keyboard-response","384","709329","0.0-3.0-1.314","<span style=""font-size:30px; font-family: monospace"">ofereceu</span>"," ","","exp-sent","ofereceu","","",""
"","680","html-keyboard-response","385","710263","0.0-3.0-1.315","<span style=""font-size:30px; font-family: monospace"">a</span>"," ","","exp-sent","a","","",""
"","732","html-keyboard-response","386","711249","0.0-3.0-1.316","<span style=""font-size:30px; font-family: monospace"">pomada</span>"," ","","exp-sent","pomada","","",""
"","708","html-keyboard-response","387","712209","0.0-3.0-1.317","<span style=""font-size:30px; font-family: monospace"">para</span>"," ","","exp-sent","para","","",""
"","630","html-keyboard-response","388","713093","0.0-3.0-1.318","<span style=""font-size:30px; font-family: monospace"">o</span>"," ","","exp-sent","o","","",""
"","1261","html-keyboard-response","389","714615","0.0-3.0-1.319","<span style=""font-size:30px; font-family: monospace"">avô.</span>"," ","","exp-sent","avô.","","",""
"","null","html-keyboard-response","390","715875","0.0-3.0-0.320-0.320","<span style= ""font-size:30px; font-family: monospace"">+</span>","null","fixation","","","","",""
"","561","html-keyboard-response","391","716692","0.0-3.0-1.320","<span style=""font-size:30px; font-family: monospace"">Ele</span>"," ","","exp-sent","Ele","","",""
"","554","html-keyboard-response","392","717500","0.0-3.0-1.321","<span style=""font-size:30px; font-family: monospace"">conversou</span>"," ","","exp-sent","conversou","","",""
"","662","html-keyboard-response","393","718416","0.0-3.0-1.322","<span style=""font-size:30px; font-family: monospace"">com</span>"," ","","exp-sent","com","","",""
"","654","html-keyboard-response","394","719326","0.0-3.0-1.323","<span style=""font-size:30px; font-family: monospace"">o</span>"," ","","exp-sent","o","","",""
"","758","html-keyboard-response","395","720340","0.0-3.0-1.324","<span style=""font-size:30px; font-family: monospace"">patrão</span>"," ","","exp-sent","patrão","","",""
"","662","html-keyboard-response","396","721261","0.0-3.0-1.325","<span style=""font-size:30px; font-family: monospace"">durante</span>"," ","","exp-sent","durante","","",""
"","543","html-keyboard-response","397","722057","0.0-3.0-1.326","<span style=""font-size:30px; font-family: monospace"">a</span>"," ","","exp-sent","a","","",""
"","2663","html-keyboard-response","398","724977","0.0-3.0-1.327","<span style=""font-size:30px; font-family: monospace"">tarde.</span>"," ","","exp-sent","tarde.","","",""
"","null","html-keyboard-response","399","726233","0.0-3.0-0.328-0.328","<span style= ""font-size:30px; font-family: monospace"">+</span>","null","fixation","","","","",""
"","864","html-keyboard-response","400","727350","0.0-3.0-1.328","<span style=""font-size:30px; font-family: monospace"">Algumas</span>"," ","","exp-sent","Algumas","","",""
"","521","html-keyboard-response","401","728125","0.0-3.0-1.329","<span style=""font-size:30px; font-family: monospace"">pessoas</span>"," ","","exp-sent","pessoas","","",""
"","623","html-keyboard-response","402","729001","0.0-3.0-1.330","<span style=""font-size:30px; font-family: monospace"">acreditam</span>"," ","","exp-sent","acreditam","","",""
"","637","html-keyboard-response","403","729892","0.0-3.0-1.331","<span style=""font-size:30px; font-family: monospace"">em</span>"," ","","exp-sent","em","","",""
"","676","html-keyboard-response","404","730823","0.0-3.0-1.332","<span style=""font-size:30px; font-family: monospace"">espíritos</span>"," ","","exp-sent","espíritos","","",""
"","641","html-keyboard-response","405","731717","0.0-3.0-1.333","<span style=""font-size:30px; font-family: monospace"">e</span>"," ","","exp-sent","e","","",""
"","634","html-keyboard-response","406","732608","0.0-3.0-1.334","<span style=""font-size:30px; font-family: monospace"">em</span>"," ","","exp-sent","em","","",""
"","599","html-keyboard-response","407","733462","0.0-3.0-1.335","<span style=""font-size:30px; font-family: monospace"">outras</span>"," ","","exp-sent","outras","","",""
"","633","html-keyboard-response","408","734353","0.0-3.0-1.336","<span style=""font-size:30px; font-family: monospace"">vidas.</span>"," ","","exp-sent","vidas.","","",""
"","null","html-keyboard-response","409","735609","0.0-3.0-0.337-0.337","<span style= ""font-size:30px; font-family: monospace"">+</span>","null","fixation","","","","",""
"","606","html-keyboard-response","410","736470","0.0-3.0-1.337","<span style=""font-size:30px; font-family: monospace"">Ela</span>"," ","","exp-sent","Ela","","",""
"","499","html-keyboard-response","411","737223","0.0-3.0-1.338","<span style=""font-size:30px; font-family: monospace"">gosta</span>"," ","","exp-sent","gosta","","",""
"","498","html-keyboard-response","412","737976","0.0-3.0-1.339","<span style=""font-size:30px; font-family: monospace"">de</span>"," ","","exp-sent","de","","",""
"","480","html-keyboard-response","413","738711","0.0-3.0-1.340","<span style=""font-size:30px; font-family: monospace"">estudar</span>"," ","","exp-sent","estudar","","",""
"","604","html-keyboard-response","414","739569","0.0-3.0-1.341","<span style=""font-size:30px; font-family: monospace"">matemática</span>"," ","","exp-sent","matemática","","",""
"","751","html-keyboard-response","415","740586","0.0-3.0-1.342","<span style=""font-size:30px; font-family: monospace"">com</span>"," ","","exp-sent","com","","",""
"","592","html-keyboard-response","416","741433","0.0-3.0-1.343","<span style=""font-size:30px; font-family: monospace"">colegas.</span>"," ","","comp","colegas.","","",""
"","3117","html-keyboard-response","417","744805","0.0-3.0-2.343-0.343","<span style=""font-size:30px; font-family: monospace"">Ela gosta de estudar física?</span>","n","","comp","","Ela gosta de estudar física?","não","false"
"","null","html-keyboard-response","418","746312","0.0-3.0-0.344-0.344","<span style= ""font-size:30px; font-family: monospace"">+</span>","null","fixation","","","","",""
"","6266","html-keyboard-response","419","752832","0.0-3.0-1.344","<span style=""font-size:30px; font-family: monospace"">A</span>"," ","","exp-sent","A","","",""
"","4786","html-keyboard-response","420","757873","0.0-3.0-1.345","<span style=""font-size:30px; font-family: monospace"">motorista</span>"," ","","exp-sent","motorista","","",""
"","689","html-keyboard-response","421","758820","0.0-3.0-1.346","<span style=""font-size:30px; font-family: monospace"">fez</span>"," ","","exp-sent","fez","","",""
"","598","html-keyboard-response","422","759673","0.0-3.0-1.347","<span style=""font-size:30px; font-family: monospace"">o</span>"," ","","exp-sent","o","","",""
"","492","html-keyboard-response","423","760424","0.0-3.0-1.348","<span style=""font-size:30px; font-family: monospace"">retorno</span>"," ","","exp-sent","retorno","","",""
"","516","html-keyboard-response","424","761194","0.0-3.0-1.349","<span style=""font-size:30px; font-family: monospace"">com</span>"," ","","exp-sent","com","","",""
"","605","html-keyboard-response","425","762055","0.0-3.0-1.350","<span style=""font-size:30px; font-family: monospace"">cuidado.</span>"," ","","exp-sent","cuidado.","","",""
"","null","html-keyboard-response","426","763310","0.0-3.0-0.351-0.351","<span style= ""font-size:30px; font-family: monospace"">+</span>","null","fixation","","","","",""
"","605","html-keyboard-response","427","764169","0.0-3.0-1.351","<span style=""font-size:30px; font-family: monospace"">Contos</span>"," ","","exp-sent","Contos","","",""
"","470","html-keyboard-response","428","764898","0.0-3.0-1.352","<span style=""font-size:30px; font-family: monospace"">de</span>"," ","","exp-sent","de","","",""
"","491","html-keyboard-response","429","765642","0.0-3.0-1.353","<span style=""font-size:30px; font-family: monospace"">ação</span>"," ","","exp-sent","ação","","",""
"","475","html-keyboard-response","430","766370","0.0-3.0-1.354","<span style=""font-size:30px; font-family: monospace"">têm</span>"," ","","exp-sent","têm","","",""
"","520","html-keyboard-response","431","767146","0.0-3.0-1.355","<span style=""font-size:30px; font-family: monospace"">chantagem</span>"," ","","exp-sent","chantagem","","",""
"","509","html-keyboard-response","432","767919","0.0-3.0-1.356","<span style=""font-size:30px; font-family: monospace"">e</span>"," ","","exp-sent","e","","",""
"","544","html-keyboard-response","433","768719","0.0-3.0-1.357","<span style=""font-size:30px; font-family: monospace"">muita</span>"," ","","exp-sent","muita","","",""
"","510","html-keyboard-response","434","769483","0.0-3.0-1.358","<span style=""font-size:30px; font-family: monospace"">luta.</span>"," ","","exp-sent","luta.","","",""
"","null","html-keyboard-response","435","770737","0.0-3.0-0.359-0.359","<span style= ""font-size:30px; font-family: monospace"">+</span>","null","fixation","","","","",""
"","760","html-keyboard-response","436","771753","0.0-3.0-1.359","<span style=""font-size:30px; font-family: monospace"">A</span>"," ","","exp-sent","A","","",""
"","1022","html-keyboard-response","437","773032","0.0-3.0-1.360","<span style=""font-size:30px; font-family: monospace"">bisavó</span>"," ","","exp-sent","bisavó","","",""
"","789","html-keyboard-response","438","774075","0.0-3.0-1.361","<span style=""font-size:30px; font-family: monospace"">recebeu</span>"," ","","exp-sent","recebeu","","",""
"","767","html-keyboard-response","439","775096","0.0-3.0-1.362","<span style=""font-size:30px; font-family: monospace"">um</span>"," ","","exp-sent","um","","",""
"","1224","html-keyboard-response","440","776574","0.0-3.0-1.363","<span style=""font-size:30px; font-family: monospace"">benefício</span>"," ","","exp-sent","benefício","","",""
"","1262","html-keyboard-response","441","778090","0.0-3.0-1.364","<span style=""font-size:30px; font-family: monospace"">temporário</span>"," ","","exp-sent","temporário","","",""
"","687","html-keyboard-response","442","779031","0.0-3.0-1.365","<span style=""font-size:30px; font-family: monospace"">do</span>"," ","","exp-sent","do","","",""
"","2377","html-keyboard-response","443","781664","0.0-3.0-1.366","<span style=""font-size:30px; font-family: monospace"">governo.</span>"," ","","exp-sent","governo.","","",""
"","null","html-keyboard-response","444","782922","0.0-3.0-0.367-0.367","<span style= ""font-size:30px; font-family: monospace"">+</span>","null","fixation","","","","",""
"","1609","html-keyboard-response","445","784787","0.0-3.0-1.367","<span style=""font-size:30px; font-family: monospace"">As</span>"," ","","exp-sent","As","","",""
"","1523","html-keyboard-response","446","786575","0.0-3.0-1.368","<span style=""font-size:30px; font-family: monospace"">crianças</span>"," ","","exp-sent","crianças","","",""
"","860","html-keyboard-response","447","787690","0.0-3.0-1.369","<span style=""font-size:30px; font-family: monospace"">brincaram</span>"," ","","exp-sent","brincaram","","",""
"","512","html-keyboard-response","448","788456","0.0-3.0-1.370","<span style=""font-size:30px; font-family: monospace"">no</span>"," ","","exp-sent","no","","",""
"","838","html-keyboard-response","449","789563","0.0-3.0-1.371","<span style=""font-size:30px; font-family: monospace"">balanço</span>"," ","","exp-sent","balanço","","",""
"","632","html-keyboard-response","450","790449","0.0-3.0-1.372","<span style=""font-size:30px; font-family: monospace"">a</span>"," ","","exp-sent","a","","",""
"","764","html-keyboard-response","451","791468","0.0-3.0-1.373","<span style=""font-size:30px; font-family: monospace"">tarde</span>"," ","","exp-sent","tarde","","",""
"","597","html-keyboard-response","452","792319","0.0-3.0-1.374","<span style=""font-size:30px; font-family: monospace"">toda.</span>"," ","","exp-sent","toda.","","",""
"","null","html-keyboard-response","453","793572","0.0-3.0-0.375-0.375","<span style= ""font-size:30px; font-family: monospace"">+</span>","null","fixation","","","","",""
"","709","html-keyboard-response","454","794539","0.0-3.0-1.375","<span style=""font-size:30px; font-family: monospace"">Ela</span>"," ","","exp-sent","Ela","","",""
"","708","html-keyboard-response","455","795505","0.0-3.0-1.376","<span style=""font-size:30px; font-family: monospace"">gosta</span>"," ","","exp-sent","gosta","","",""
"","534","html-keyboard-response","456","796297","0.0-3.0-1.377","<span style=""font-size:30px; font-family: monospace"">de</span>"," ","","exp-sent","de","","",""
"","600","html-keyboard-response","457","797152","0.0-3.0-1.378","<span style=""font-size:30px; font-family: monospace"">comida</span>"," ","","exp-sent","comida","","",""
"","540","html-keyboard-response","458","797952","0.0-3.0-1.379","<span style=""font-size:30px; font-family: monospace"">natural</span>"," ","","exp-sent","natural","","",""
"","583","html-keyboard-response","459","798798","0.0-3.0-1.380","<span style=""font-size:30px; font-family: monospace"">no</span>"," ","","exp-sent","no","","",""
"","2988","html-keyboard-response","460","802039","0.0-3.0-1.381","<span style=""font-size:30px; font-family: monospace"">almoço.</span>"," ","","comp","almoço.","","",""
"","3376","html-keyboard-response","461","805669","0.0-3.0-2.381-0.381","<span style=""font-size:30px; font-family: monospace"">Ela gosta de comida natural no almoço?</span>","s","","comp","","Ela gosta de comida natural no almoço?","sim","false"
"","null","html-keyboard-response","462","807178","0.0-3.0-0.382-0.382","<span style= ""font-size:30px; font-family: monospace"">+</span>","null","fixation","","","","",""
"","6916","html-keyboard-response","463","814352","0.0-3.0-1.382","<span style=""font-size:30px; font-family: monospace"">Minha</span>"," ","","exp-sent","Minha","","",""
"","531","html-keyboard-response","464","815137","0.0-3.0-1.383","<span style=""font-size:30px; font-family: monospace"">prima</span>"," ","","exp-sent","prima","","",""
"","498","html-keyboard-response","465","815893","0.0-3.0-1.384","<span style=""font-size:30px; font-family: monospace"">trocou</span>"," ","","exp-sent","trocou","","",""
"","501","html-keyboard-response","466","816649","0.0-3.0-1.385","<span style=""font-size:30px; font-family: monospace"">a</span>"," ","","exp-sent","a","","",""
"","480","html-keyboard-response","467","817383","0.0-3.0-1.386","<span style=""font-size:30px; font-family: monospace"">tela</span>"," ","","exp-sent","tela","","",""
"","516","html-keyboard-response","468","818153","0.0-3.0-1.387","<span style=""font-size:30px; font-family: monospace"">do</span>"," ","","exp-sent","do","","",""
"","549","html-keyboard-response","469","818965","0.0-3.0-1.388","<span style=""font-size:30px; font-family: monospace"">celular</span>"," ","","exp-sent","celular","","",""
"","476","html-keyboard-response","470","819697","0.0-3.0-1.389","<span style=""font-size:30px; font-family: monospace"">duas</span>"," ","","exp-sent","duas","","",""
"","456","html-keyboard-response","471","820410","0.0-3.0-1.390","<span style=""font-size:30px; font-family: monospace"">vezes.</span>"," ","","exp-sent","vezes.","","",""
"","null","html-keyboard-response","472","821666","0.0-3.0-0.391-0.391","<span style= ""font-size:30px; font-family: monospace"">+</span>","null","fixation","","","","",""
"","1032","html-keyboard-response","473","822956","0.0-3.0-1.391","<span style=""font-size:30px; font-family: monospace"">Agora</span>"," ","","exp-sent","Agora","","",""
"","467","html-keyboard-response","474","823682","0.0-3.0-1.392","<span style=""font-size:30px; font-family: monospace"">a</span>"," ","","exp-sent","a","","",""
"","494","html-keyboard-response","475","824433","0.0-3.0-1.393","<span style=""font-size:30px; font-family: monospace"">minha</span>"," ","","exp-sent","minha","","",""
"","487","html-keyboard-response","476","825178","0.0-3.0-1.394","<span style=""font-size:30px; font-family: monospace"">única</span>"," ","","exp-sent","única","","",""
"","561","html-keyboard-response","477","825994","0.0-3.0-1.395","<span style=""font-size:30px; font-family: monospace"">preocupação</span>"," ","","exp-sent","preocupação","","",""
"","527","html-keyboard-response","478","826777","0.0-3.0-1.396","<span style=""font-size:30px; font-family: monospace"">é</span>"," ","","exp-sent","é","","",""
"","585","html-keyboard-response","479","827619","0.0-3.0-1.397","<span style=""font-size:30px; font-family: monospace"">um</span>"," ","","exp-sent","um","","",""
"","611","html-keyboard-response","480","828485","0.0-3.0-1.398","<span style=""font-size:30px; font-family: monospace"">descanso</span>"," ","","exp-sent","descanso","","",""
"","588","html-keyboard-response","481","829327","0.0-3.0-1.399","<span style=""font-size:30px; font-family: monospace"">tranquilo.</span>"," ","","exp-sent","tranquilo.","","",""
"","null","html-keyboard-response","482","830608","0.0-3.0-0.400-0.400","<span style= ""font-size:30px; font-family: monospace"">+</span>","null","fixation","","","","",""
"","639","html-keyboard-response","483","831502","0.0-3.0-1.400","<span style=""font-size:30px; font-family: monospace"">A</span>"," ","","exp-sent","A","","",""
"","517","html-keyboard-response","484","832274","0.0-3.0-1.401","<span style=""font-size:30px; font-family: monospace"">criança</span>"," ","","exp-sent","criança","","",""
"","583","html-keyboard-response","485","833113","0.0-3.0-1.402","<span style=""font-size:30px; font-family: monospace"">ganhou</span>"," ","","exp-sent","ganhou","","",""
"","575","html-keyboard-response","486","833946","0.0-3.0-1.403","<span style=""font-size:30px; font-family: monospace"">um</span>"," ","","exp-sent","um","","",""
"","498","html-keyboard-response","487","834699","0.0-3.0-1.404","<span style=""font-size:30px; font-family: monospace"">presente</span>"," ","","exp-sent","presente","","",""
"","623","html-keyboard-response","488","835579","0.0-3.0-1.405","<span style=""font-size:30px; font-family: monospace"">maravilhoso.</span>"," ","","exp-sent","maravilhoso.","","",""
"","null","html-keyboard-response","489","836835","0.0-3.0-0.406-0.406","<span style= ""font-size:30px; font-family: monospace"">+</span>","null","fixation","","","","",""
"","24721","html-keyboard-response","490","861811","0.0-3.0-1.406","<span style=""font-size:30px; font-family: monospace"">Os</span>"," ","","exp-sent","Os","","",""
"","776","html-keyboard-response","491","862843","0.0-3.0-1.407","<span style=""font-size:30px; font-family: monospace"">bichos</span>"," ","","exp-sent","bichos","","",""
"","576","html-keyboard-response","492","863674","0.0-3.0-1.408","<span style=""font-size:30px; font-family: monospace"">têm</span>"," ","","exp-sent","têm","","",""
"","569","html-keyboard-response","493","864496","0.0-3.0-1.409","<span style=""font-size:30px; font-family: monospace"">um</span>"," ","","exp-sent","um","","",""
"","786","html-keyboard-response","494","865539","0.0-3.0-1.410","<span style=""font-size:30px; font-family: monospace"">instinto</span>"," ","","exp-sent","instinto","","",""
"","655","html-keyboard-response","495","866449","0.0-3.0-1.411","<span style=""font-size:30px; font-family: monospace"">de</span>"," ","","exp-sent","de","","",""
"","2754","html-keyboard-response","496","869461","0.0-3.0-1.412","<span style=""font-size:30px; font-family: monospace"">sobrevivência</span>"," ","","exp-sent","sobrevivência","","",""
"","613","html-keyboard-response","497","870330","0.0-3.0-1.413","<span style=""font-size:30px; font-family: monospace"">forte.</span>"," ","","exp-sent","forte.","","",""
"","null","html-keyboard-response","498","871585","0.0-3.0-0.414-0.414","<span style= ""font-size:30px; font-family: monospace"">+</span>","null","fixation","","","","",""
"","665","html-keyboard-response","499","872504","0.0-3.0-1.414","<span style=""font-size:30px; font-family: monospace"">Aquele</span>"," ","","exp-sent","Aquele","","",""
"","500","html-keyboard-response","500","873258","0.0-3.0-1.415","<span style=""font-size:30px; font-family: monospace"">menino</span>"," ","","exp-sent","menino","","",""
"","591","html-keyboard-response","501","874117","0.0-3.0-1.416","<span style=""font-size:30px; font-family: monospace"">alto</span>"," ","","exp-sent","alto","","",""
"","590","html-keyboard-response","502","874962","0.0-3.0-1.417","<span style=""font-size:30px; font-family: monospace"">é</span>"," ","","exp-sent","é","","",""
"","970","html-keyboard-response","503","876189","0.0-3.0-1.418","<span style=""font-size:30px; font-family: monospace"">exibido</span>"," ","","exp-sent","exibido","","",""
"","843","html-keyboard-response","504","877287","0.0-3.0-1.419","<span style=""font-size:30px; font-family: monospace"">e</span>"," ","","exp-sent","e","","",""
"","1501","html-keyboard-response","505","879043","0.0-3.0-1.420","<span style=""font-size:30px; font-family: monospace"">sovina.</span>"," ","","comp","sovina.","","",""
"","135064","html-keyboard-response","506","1014368","0.0-3.0-2.420-0.420","<span style=""font-size:30px; font-family: monospace"">Aquele menino é humilde?</span>","n","","comp","","Aquele menino é humilde?","não","false"
"","null","html-keyboard-response","507","1015873","0.0-3.0-0.421-0.421","<span style= ""font-size:30px; font-family: monospace"">+</span>","null","fixation","","","","",""
"","1078","html-keyboard-response","508","1017203","0.0-3.0-1.421","<span style=""font-size:30px; font-family: monospace"">Ursos</span>"," ","","exp-sent","Ursos","","",""
"","520","html-keyboard-response","509","1017982","0.0-3.0-1.422","<span style=""font-size:30px; font-family: monospace"">têm</span>"," ","","exp-sent","têm","","",""
"","473","html-keyboard-response","510","1018710","0.0-3.0-1.423","<span style=""font-size:30px; font-family: monospace"">uma</span>"," ","","exp-sent","uma","","",""
"","424","html-keyboard-response","511","1019386","0.0-3.0-1.424","<span style=""font-size:30px; font-family: monospace"">patada</span>"," ","","exp-sent","patada","","",""
"","486","html-keyboard-response","512","1020125","0.0-3.0-1.425","<span style=""font-size:30px; font-family: monospace"">brutal</span>"," ","","exp-sent","brutal","","",""
"","477","html-keyboard-response","513","1020864","0.0-3.0-1.426","<span style=""font-size:30px; font-family: monospace"">e</span>"," ","","exp-sent","e","","",""
"","557","html-keyboard-response","514","1021675","0.0-3.0-1.427","<span style=""font-size:30px; font-family: monospace"">poderosa.</span>"," ","","exp-sent","poderosa.","","",""
"","null","html-keyboard-response","515","1022930","0.0-3.0-0.428-0.428","<span style= ""font-size:30px; font-family: monospace"">+</span>","null","fixation","","","","",""
"","495","html-keyboard-response","516","1023680","0.0-3.0-1.428","<span style=""font-size:30px; font-family: monospace"">Eu</span>"," ","","exp-sent","Eu","","",""
"","489","html-keyboard-response","517","1024422","0.0-3.0-1.429","<span style=""font-size:30px; font-family: monospace"">fiz</span>"," ","","exp-sent","fiz","","",""
"","532","html-keyboard-response","518","1025210","0.0-3.0-1.430","<span style=""font-size:30px; font-family: monospace"">aulas</span>"," ","","exp-sent","aulas","","",""
"","492","html-keyboard-response","519","1025955","0.0-3.0-1.431","<span style=""font-size:30px; font-family: monospace"">de</span>"," ","","exp-sent","de","","",""
"","549","html-keyboard-response","520","1026760","0.0-3.0-1.432","<span style=""font-size:30px; font-family: monospace"">espanhol</span>"," ","","exp-sent","espanhol","","",""
"","519","html-keyboard-response","521","1027537","0.0-3.0-1.433","<span style=""font-size:30px; font-family: monospace"">nesta</span>"," ","","exp-sent","nesta","","",""
"","515","html-keyboard-response","522","1028311","0.0-3.0-1.434","<span style=""font-size:30px; font-family: monospace"">cidade.</span>"," ","","exp-sent","cidade.","","",""
"","null","html-keyboard-response","523","1029567","0.0-3.0-0.435-0.435","<span style= ""font-size:30px; font-family: monospace"">+</span>","null","fixation","","","","",""
"","505","html-keyboard-response","524","1030327","0.0-3.0-1.435","<span style=""font-size:30px; font-family: monospace"">Ele</span>"," ","","exp-sent","Ele","","",""
"","594","html-keyboard-response","525","1031176","0.0-3.0-1.436","<span style=""font-size:30px; font-family: monospace"">comprou</span>"," ","","exp-sent","comprou","","",""
"","523","html-keyboard-response","526","1031955","0.0-3.0-1.437","<span style=""font-size:30px; font-family: monospace"">mais</span>"," ","","exp-sent","mais","","",""
"","511","html-keyboard-response","527","1032721","0.0-3.0-1.438","<span style=""font-size:30px; font-family: monospace"">uma</span>"," ","","exp-sent","uma","","",""
"","638","html-keyboard-response","528","1033614","0.0-3.0-1.439","<span style=""font-size:30px; font-family: monospace"">esponja</span>"," ","","exp-sent","esponja","","",""
"","933","html-keyboard-response","529","1034802","0.0-3.0-1.440","<span style=""font-size:30px; font-family: monospace"">para</span>"," ","","exp-sent","para","","",""
"","486","html-keyboard-response","530","1035543","0.0-3.0-1.441","<span style=""font-size:30px; font-family: monospace"">a</span>"," ","","exp-sent","a","","",""
"","523","html-keyboard-response","531","1036321","0.0-3.0-1.442","<span style=""font-size:30px; font-family: monospace"">cozinha.</span>"," ","","exp-sent","cozinha.","","",""
"","null","html-keyboard-response","532","1037574","0.0-3.0-0.443-0.443","<span style= ""font-size:30px; font-family: monospace"">+</span>","null","fixation","","","","",""
"","504","html-keyboard-response","533","1038338","0.0-3.0-1.443","<span style=""font-size:30px; font-family: monospace"">Ele</span>"," ","","exp-sent","Ele","","",""
"","426","html-keyboard-response","534","1039023","0.0-3.0-1.444","<span style=""font-size:30px; font-family: monospace"">teve</span>"," ","","exp-sent","teve","","",""
"","439","html-keyboard-response","535","1039719","0.0-3.0-1.445","<span style=""font-size:30px; font-family: monospace"">um</span>"," ","","exp-sent","um","","",""
"","508","html-keyboard-response","536","1040481","0.0-3.0-1.446","<span style=""font-size:30px; font-family: monospace"">sono</span>"," ","","exp-sent","sono","","",""
"","815","html-keyboard-response","537","1041549","0.0-3.0-1.447","<span style=""font-size:30px; font-family: monospace"">bizarro</span>"," ","","exp-sent","bizarro","","",""
"","691","html-keyboard-response","538","1042494","0.0-3.0-1.448","<span style=""font-size:30px; font-family: monospace"">sem</span>"," ","","exp-sent","sem","","",""
"","580","html-keyboard-response","539","1043329","0.0-3.0-1.449","<span style=""font-size:30px; font-family: monospace"">nenhum</span>"," ","","exp-sent","nenhum","","",""
"","648","html-keyboard-response","540","1044231","0.0-3.0-1.450","<span style=""font-size:30px; font-family: monospace"">motivo.</span>"," ","","exp-sent","motivo.","","",""
"","null","html-keyboard-response","541","1045486","0.0-3.0-0.451-0.451","<span style= ""font-size:30px; font-family: monospace"">+</span>","null","fixation","","","","",""
"","561","html-keyboard-response","542","1046307","0.0-3.0-1.451","<span style=""font-size:30px; font-family: monospace"">A</span>"," ","","exp-sent","A","","",""
"","469","html-keyboard-response","543","1047032","0.0-3.0-1.452","<span style=""font-size:30px; font-family: monospace"">moça</span>"," ","","exp-sent","moça","","",""
"","539","html-keyboard-response","544","1047825","0.0-3.0-1.453","<span style=""font-size:30px; font-family: monospace"">comprou</span>"," ","","exp-sent","comprou","","",""
"","561","html-keyboard-response","545","1048642","0.0-3.0-1.454","<span style=""font-size:30px; font-family: monospace"">um</span>"," ","","exp-sent","um","","",""
"","537","html-keyboard-response","546","1049446","0.0-3.0-1.455","<span style=""font-size:30px; font-family: monospace"">diamante</span>"," ","","exp-sent","diamante","","",""
"","550","html-keyboard-response","547","1050260","0.0-3.0-1.456","<span style=""font-size:30px; font-family: monospace"">para</span>"," ","","exp-sent","para","","",""
"","560","html-keyboard-response","548","1051074","0.0-3.0-1.457","<span style=""font-size:30px; font-family: monospace"">sua</span>"," ","","exp-sent","sua","","",""
"","635","html-keyboard-response","549","1051963","0.0-3.0-1.458","<span style=""font-size:30px; font-family: monospace"">prima.</span>"," ","","comp","prima.","","",""
"","3709","html-keyboard-response","550","1055929","0.0-3.0-2.458-0.458","<span style=""font-size:30px; font-family: monospace"">A moça comprou um diamante?</span>","s","","comp","","A moça comprou um diamante?","sim","false"
"","null","html-keyboard-response","551","1057436","0.0-3.0-0.459-0.459","<span style= ""font-size:30px; font-family: monospace"">+</span>","null","fixation","","","","",""
"","677","html-keyboard-response","552","1058369","0.0-3.0-1.459","<span style=""font-size:30px; font-family: monospace"">O</span>"," ","","exp-sent","O","","",""
"","519","html-keyboard-response","553","1059147","0.0-3.0-1.460","<span style=""font-size:30px; font-family: monospace"">texto</span>"," ","","exp-sent","texto","","",""
"","479","html-keyboard-response","554","1059881","0.0-3.0-1.461","<span style=""font-size:30px; font-family: monospace"">trazia</span>"," ","","exp-sent","trazia","","",""
"","484","html-keyboard-response","555","1060620","0.0-3.0-1.462","<span style=""font-size:30px; font-family: monospace"">um</span>"," ","","exp-sent","um","","",""
"","512","html-keyboard-response","556","1061387","0.0-3.0-1.463","<span style=""font-size:30px; font-family: monospace"">argumento</span>"," ","","exp-sent","argumento","","",""
"","475","html-keyboard-response","557","1062115","0.0-3.0-1.464","<span style=""font-size:30px; font-family: monospace"">central</span>"," ","","exp-sent","central","","",""
"","426","html-keyboard-response","558","1062795","0.0-3.0-1.465","<span style=""font-size:30px; font-family: monospace"">para</span>"," ","","exp-sent","para","","",""
"","451","html-keyboard-response","559","1063501","0.0-3.0-1.466","<span style=""font-size:30px; font-family: monospace"">a</span>"," ","","exp-sent","a","","",""
"","490","html-keyboard-response","560","1064243","0.0-3.0-1.467","<span style=""font-size:30px; font-family: monospace"">conversa.</span>"," ","","exp-sent","conversa.","","",""
"","null","html-keyboard-response","561","1065496","0.0-3.0-0.468-0.468","<span style= ""font-size:30px; font-family: monospace"">+</span>","null","fixation","","","","",""
"","547","html-keyboard-response","562","1066298","0.0-3.0-1.468","<span style=""font-size:30px; font-family: monospace"">Ontem</span>"," ","","exp-sent","Ontem","","",""
"","474","html-keyboard-response","563","1067026","0.0-3.0-1.469","<span style=""font-size:30px; font-family: monospace"">a</span>"," ","","exp-sent","a","","",""
"","507","html-keyboard-response","564","1067787","0.0-3.0-1.470","<span style=""font-size:30px; font-family: monospace"">temperatura</span>"," ","","exp-sent","temperatura","","",""
"","638","html-keyboard-response","565","1068689","0.0-3.0-1.471","<span style=""font-size:30px; font-family: monospace"">estava</span>"," ","","exp-sent","estava","","",""
"","541","html-keyboard-response","566","1069485","0.0-3.0-1.472","<span style=""font-size:30px; font-family: monospace"">amena</span>"," ","","exp-sent","amena","","",""
"","625","html-keyboard-response","567","1070365","0.0-3.0-1.473","<span style=""font-size:30px; font-family: monospace"">durante</span>"," ","","exp-sent","durante","","",""
"","1138","html-keyboard-response","568","1071757","0.0-3.0-1.474","<span style=""font-size:30px; font-family: monospace"">o</span>"," ","","exp-sent","o","","",""
"","533","html-keyboard-response","569","1072543","0.0-3.0-1.475","<span style=""font-size:30px; font-family: monospace"">dia.</span>"," ","","exp-sent","dia.","","",""
"","null","html-keyboard-response","570","1073813","0.0-3.0-0.476-0.476","<span style= ""font-size:30px; font-family: monospace"">+</span>","null","fixation","","","","",""
"","565","html-keyboard-response","571","1074636","0.0-3.0-1.476","<span style=""font-size:30px; font-family: monospace"">Havia</span>"," ","","exp-sent","Havia","","",""
"","470","html-keyboard-response","572","1075360","0.0-3.0-1.477","<span style=""font-size:30px; font-family: monospace"">um</span>"," ","","exp-sent","um","","",""
"","610","html-keyboard-response","573","1076225","0.0-3.0-1.478","<span style=""font-size:30px; font-family: monospace"">machucado</span>"," ","","exp-sent","machucado","","",""
"","875","html-keyboard-response","574","1077354","0.0-3.0-1.479","<span style=""font-size:30px; font-family: monospace"">no</span>"," ","","exp-sent","no","","",""
"","609","html-keyboard-response","575","1078218","0.0-3.0-1.480","<span style=""font-size:30px; font-family: monospace"">dedo</span>"," ","","exp-sent","dedo","","",""
"","510","html-keyboard-response","576","1078982","0.0-3.0-1.481","<span style=""font-size:30px; font-family: monospace"">da</span>"," ","","exp-sent","da","","",""
"","1475","html-keyboard-response","577","1080715","0.0-3.0-1.482","<span style=""font-size:30px; font-family: monospace"">criança.</span>"," ","","exp-sent","criança.","","",""
"","null","html-keyboard-response","578","1081975","0.0-3.0-0.483-0.483","<span style= ""font-size:30px; font-family: monospace"">+</span>","null","fixation","","","","",""
"","465","html-keyboard-response","579","1082698","0.0-3.0-1.483","<span style=""font-size:30px; font-family: monospace"">A</span>"," ","","exp-sent","A","","",""
"","1104","html-keyboard-response","580","1084056","0.0-3.0-1.484","<span style=""font-size:30px; font-family: monospace"">borboleta</span>"," ","","exp-sent","borboleta","","",""
"","560","html-keyboard-response","581","1084873","0.0-3.0-1.485","<span style=""font-size:30px; font-family: monospace"">pousou</span>"," ","","exp-sent","pousou","","",""
"","564","html-keyboard-response","582","1085698","0.0-3.0-1.486","<span style=""font-size:30px; font-family: monospace"">no</span>"," ","","exp-sent","no","","",""
"","628","html-keyboard-response","583","1086581","0.0-3.0-1.487","<span style=""font-size:30px; font-family: monospace"">ombro</span>"," ","","exp-sent","ombro","","",""
