[
	{
		"view_history": [
			{
				"page_index": 0,
				"viewing_time": 27135
			},
			{
				"page_index": 1,
				"viewing_time": 17704
			}
		],
		"rt": 44843,
		"trial_type": "instructions",
		"trial_index": 0,
		"time_elapsed": 44851,
		"internal_node_id": "0.0-0.0"
	},
	{
		"rt": null,
		"stimulus": "<span style= \"font-size:30px; font-family: monospace\">+</span>",
		"response": null,
		"trial_part": "fixation",
		"trial_type": "html-keyboard-response",
		"trial_index": 1,
		"time_elapsed": 45960,
		"internal_node_id": "0.0-1.0-0.0-0.0"
	},
	{
		"rt": 12250,
		"stimulus": "<span style=\"font-size:30px; font-family: monospace\">O</span>",
		"response": " ",
		"trial": "prac-sent",
		"word": "O",
		"trial_type": "html-keyboard-response",
		"trial_index": 2,
		"time_elapsed": 58464,
		"internal_node_id": "0.0-1.0-1.0"
	},
	{
		"rt": 4048,
		"stimulus": "<span style=\"font-size:30px; font-family: monospace\">dia</span>",
		"response": " ",
		"trial": "prac-sent",
		"word": "dia",
		"trial_type": "html-keyboard-response",
		"trial_index": 3,
		"time_elapsed": 62767,
		"internal_node_id": "0.0-1.0-1.1"
	},
	{
		"rt": 2818,
		"stimulus": "<span style=\"font-size:30px; font-family: monospace\">estará</span>",
		"response": " ",
		"trial": "prac-sent",
		"word": "estará",
		"trial_type": "html-keyboard-response",
		"trial_index": 4,
		"time_elapsed": 65838,
		"internal_node_id": "0.0-1.0-1.2"
	},
	{
		"rt": 2466,
		"stimulus": "<span style=\"font-size:30px; font-family: monospace\">cheio</span>",
		"response": " ",
		"trial": "prac-sent",
		"word": "cheio",
		"trial_type": "html-keyboard-response",
		"trial_index": 5,
		"time_elapsed": 68558,
		"internal_node_id": "0.0-1.0-1.3"
	},
	{
		"rt": 1145,
		"stimulus": "<span style=\"font-size:30px; font-family: monospace\">de</span>",
		"response": " ",
		"trial": "prac-sent",
		"word": "de",
		"trial_type": "html-keyboard-response",
		"trial_index": 6,
		"time_elapsed": 69958,
		"internal_node_id": "0.0-1.0-1.4"
	},
	{
		"rt": 1412,
		"stimulus": "<span style=\"font-size:30px; font-family: monospace\">nuvens</span>",
		"response": " ",
		"trial": "prac-sent",
		"word": "nuvens",
		"trial_type": "html-keyboard-response",
		"trial_index": 7,
		"time_elapsed": 71631,
		"internal_node_id": "0.0-1.0-1.5"
	},
	{
		"rt": 7787,
		"stimulus": "<span style=\"font-size:30px; font-family: monospace\">hoje.</span>",
		"response": " ",
		"trial": "prac-sent",
		"word": "hoje.",
		"trial_type": "html-keyboard-response",
		"trial_index": 8,
		"time_elapsed": 79671,
		"internal_node_id": "0.0-1.0-1.6"
	},
	{
		"rt": null,
		"stimulus": "<span style= \"font-size:30px; font-family: monospace\">+</span>",
		"response": null,
		"trial_part": "fixation",
		"trial_type": "html-keyboard-response",
		"trial_index": 9,
		"time_elapsed": 80925,
		"internal_node_id": "0.0-1.0-0.7-0.7"
	},
	{
		"rt": 3844,
		"stimulus": "<span style=\"font-size:30px; font-family: monospace\">A</span>",
		"response": " ",
		"trial": "prac-sent",
		"word": "A",
		"trial_type": "html-keyboard-response",
		"trial_index": 10,
		"time_elapsed": 85022,
		"internal_node_id": "0.0-1.0-1.7"
	},
	{
		"rt": 2107,
		"stimulus": "<span style=\"font-size:30px; font-family: monospace\">caneca</span>",
		"response": " ",
		"trial": "prac-sent",
		"word": "caneca",
		"trial_type": "html-keyboard-response",
		"trial_index": 11,
		"time_elapsed": 87382,
		"internal_node_id": "0.0-1.0-1.8"
	},
	{
		"rt": 1917,
		"stimulus": "<span style=\"font-size:30px; font-family: monospace\">colorida</span>",
		"response": " ",
		"trial": "prac-sent",
		"word": "colorida",
		"trial_type": "html-keyboard-response",
		"trial_index": 12,
		"time_elapsed": 89553,
		"internal_node_id": "0.0-1.0-1.9"
	},
	{
		"rt": 1996,
		"stimulus": "<span style=\"font-size:30px; font-family: monospace\">caiu</span>",
		"response": " ",
		"trial": "prac-sent",
		"word": "caiu",
		"trial_type": "html-keyboard-response",
		"trial_index": 13,
		"time_elapsed": 91832,
		"internal_node_id": "0.0-1.0-1.10"
	},
	{
		"rt": 2140,
		"stimulus": "<span style=\"font-size:30px; font-family: monospace\">da</span>",
		"response": " ",
		"trial": "prac-sent",
		"word": "da",
		"trial_type": "html-keyboard-response",
		"trial_index": 14,
		"time_elapsed": 94224,
		"internal_node_id": "0.0-1.0-1.11"
	},
	{
		"rt": 1457,
		"stimulus": "<span style=\"font-size:30px; font-family: monospace\">mesa</span>",
		"response": " ",
		"trial": "prac-sent",
		"word": "mesa",
		"trial_type": "html-keyboard-response",
		"trial_index": 15,
		"time_elapsed": 95935,
		"internal_node_id": "0.0-1.0-1.12"
	},
	{
		"rt": 1093,
		"stimulus": "<span style=\"font-size:30px; font-family: monospace\">de</span>",
		"response": " ",
		"trial": "prac-sent",
		"word": "de",
		"trial_type": "html-keyboard-response",
		"trial_index": 16,
		"time_elapsed": 97279,
		"internal_node_id": "0.0-1.0-1.13"
	},
	{
		"rt": 2458,
		"stimulus": "<span style=\"font-size:30px; font-family: monospace\">jantar.</span>",
		"response": " ",
		"trial": "prac-comp",
		"word": "jantar.",
		"trial_type": "html-keyboard-response",
		"trial_index": 17,
		"time_elapsed": 99991,
		"internal_node_id": "0.0-1.0-1.14"
	},
	{
		"rt": 17827,
		"stimulus": "<span style=\"font-size:30px; font-family: monospace\">A caneca permaneceu na mesa?</span>",
		"response": "n",
		"question": "A caneca permaneceu na mesa?",
		"answer": "não",
		"trial": "prac-comp",
		"trial_type": "html-keyboard-response",
		"trial_index": 18,
		"time_elapsed": 118072,
		"internal_node_id": "0.0-1.0-2.14-0.14",
		"accuracy": false
	},
	{
		"view_history": [
			{
				"page_index": 0,
				"viewing_time": 26075
			}
		],
		"rt": 26076,
		"trial_type": "instructions",
		"trial_index": 19,
		"time_elapsed": 144650,
		"internal_node_id": "0.0-2.0"
	},
	{
		"rt": null,
		"stimulus": "<span style= \"font-size:30px; font-family: monospace\">+</span>",
		"response": null,
		"trial_part": "fixation",
		"trial_type": "html-keyboard-response",
		"trial_index": 20,
		"time_elapsed": 145760,
		"internal_node_id": "0.0-3.0-0.0-0.0"
	},
	{
		"rt": 1027,
		"stimulus": "<span style=\"font-size:30px; font-family: monospace\">O</span>",
		"response": " ",
		"trial": "exp-sent",
		"word": "O",
		"trial_type": "html-keyboard-response",
		"trial_index": 21,
		"time_elapsed": 147040,
		"internal_node_id": "0.0-3.0-1.0"
	},
	{
		"rt": 1939,
		"stimulus": "<span style=\"font-size:30px; font-family: monospace\">travesseiro</span>",
		"response": " ",
		"trial": "exp-sent",
		"word": "travesseiro",
		"trial_type": "html-keyboard-response",
		"trial_index": 22,
		"time_elapsed": 149233,
		"internal_node_id": "0.0-3.0-1.1"
	},
	{
		"rt": 1025,
		"stimulus": "<span style=\"font-size:30px; font-family: monospace\">era</span>",
		"response": " ",
		"trial": "exp-sent",
		"word": "era",
		"trial_type": "html-keyboard-response",
		"trial_index": 23,
		"time_elapsed": 150512,
		"internal_node_id": "0.0-3.0-1.2"
	},
	{
		"rt": 1562,
		"stimulus": "<span style=\"font-size:30px; font-family: monospace\">muito</span>",
		"response": " ",
		"trial": "exp-sent",
		"word": "muito",
		"trial_type": "html-keyboard-response",
		"trial_index": 24,
		"time_elapsed": 152328,
		"internal_node_id": "0.0-3.0-1.3"
	},
	{
		"rt": 3507,
		"stimulus": "<span style=\"font-size:30px; font-family: monospace\">macio</span>",
		"response": " ",
		"trial": "exp-sent",
		"word": "macio",
		"trial_type": "html-keyboard-response",
		"trial_index": 25,
		"time_elapsed": 156088,
		"internal_node_id": "0.0-3.0-1.4"
	},
	{
		"rt": 1068,
		"stimulus": "<span style=\"font-size:30px; font-family: monospace\">e</span>",
		"response": " ",
		"trial": "exp-sent",
		"word": "e",
		"trial_type": "html-keyboard-response",
		"trial_index": 26,
		"time_elapsed": 157408,
		"internal_node_id": "0.0-3.0-1.5"
	},
	{
		"rt": 2232,
		"stimulus": "<span style=\"font-size:30px; font-family: monospace\">confortável.</span>",
		"response": " ",
		"trial": "exp-sent",
		"word": "confortável.",
		"trial_type": "html-keyboard-response",
		"trial_index": 27,
		"time_elapsed": 159896,
		"internal_node_id": "0.0-3.0-1.6"
	},
	{
		"rt": null,
		"stimulus": "<span style= \"font-size:30px; font-family: monospace\">+</span>",
		"response": null,
		"trial_part": "fixation",
		"trial_type": "html-keyboard-response",
		"trial_index": 28,
		"time_elapsed": 161150,
		"internal_node_id": "0.0-3.0-0.7-0.7"
	},
	{
		"rt": 1197,
		"stimulus": "<span style=\"font-size:30px; font-family: monospace\">Hoje</span>",
		"response": " ",
		"trial": "exp-sent",
		"word": "Hoje",
		"trial_type": "html-keyboard-response",
		"trial_index": 29,
		"time_elapsed": 162601,
		"internal_node_id": "0.0-3.0-1.7"
	},
	{
		"rt": 955,
		"stimulus": "<span style=\"font-size:30px; font-family: monospace\">a</span>",
		"response": " ",
		"trial": "exp-sent",
		"word": "a",
		"trial_type": "html-keyboard-response",
		"trial_index": 30,
		"time_elapsed": 163808,
		"internal_node_id": "0.0-3.0-1.8"
	},
	{
		"rt": 2299,
		"stimulus": "<span style=\"font-size:30px; font-family: monospace\">atendente</span>",
		"response": " ",
		"trial": "exp-sent",
		"word": "atendente",
		"trial_type": "html-keyboard-response",
		"trial_index": 31,
		"time_elapsed": 166361,
		"internal_node_id": "0.0-3.0-1.9"
	},
	{
		"rt": 1068,
		"stimulus": "<span style=\"font-size:30px; font-family: monospace\">estava</span>",
		"response": " ",
		"trial": "exp-sent",
		"word": "estava",
		"trial_type": "html-keyboard-response",
		"trial_index": 32,
		"time_elapsed": 167682,
		"internal_node_id": "0.0-3.0-1.10"
	},
	{
		"rt": 1259,
		"stimulus": "<span style=\"font-size:30px; font-family: monospace\">furiosa</span>",
		"response": " ",
		"trial": "exp-sent",
		"word": "furiosa",
		"trial_type": "html-keyboard-response",
		"trial_index": 33,
		"time_elapsed": 169193,
		"internal_node_id": "0.0-3.0-1.11"
	},
	{
		"rt": 1099,
		"stimulus": "<span style=\"font-size:30px; font-family: monospace\">com</span>",
		"response": " ",
		"trial": "exp-sent",
		"word": "com",
		"trial_type": "html-keyboard-response",
		"trial_index": 34,
		"time_elapsed": 170546,
		"internal_node_id": "0.0-3.0-1.12"
	},
	{
		"rt": 894,
		"stimulus": "<span style=\"font-size:30px; font-family: monospace\">o</span>",
		"response": " ",
		"trial": "exp-sent",
		"word": "o",
		"trial_type": "html-keyboard-response",
		"trial_index": 35,
		"time_elapsed": 171697,
		"internal_node_id": "0.0-3.0-1.13"
	},
	{
		"rt": 1882,
		"stimulus": "<span style=\"font-size:30px; font-family: monospace\">cliente.</span>",
		"response": " ",
		"trial": "exp-sent",
		"word": "cliente.",
		"trial_type": "html-keyboard-response",
		"trial_index": 36,
		"time_elapsed": 173833,
		"internal_node_id": "0.0-3.0-1.14"
	},
	{
		"rt": null,
		"stimulus": "<span style= \"font-size:30px; font-family: monospace\">+</span>",
		"response": null,
		"trial_part": "fixation",
		"trial_type": "html-keyboard-response",
		"trial_index": 37,
		"time_elapsed": 175092,
		"internal_node_id": "0.0-3.0-0.15-0.15"
	},
	{
		"rt": 755,
		"stimulus": "<span style=\"font-size:30px; font-family: monospace\">O</span>",
		"response": " ",
		"trial": "exp-sent",
		"word": "O",
		"trial_type": "html-keyboard-response",
		"trial_index": 38,
		"time_elapsed": 176106,
		"internal_node_id": "0.0-3.0-1.15"
	},
	{
		"rt": 970,
		"stimulus": "<span style=\"font-size:30px; font-family: monospace\">vizinho</span>",
		"response": " ",
		"trial": "exp-sent",
		"word": "vizinho",
		"trial_type": "html-keyboard-response",
		"trial_index": 39,
		"time_elapsed": 177330,
		"internal_node_id": "0.0-3.0-1.16"
	},
	{
		"rt": 1040,
		"stimulus": "<span style=\"font-size:30px; font-family: monospace\">é</span>",
		"response": " ",
		"trial": "exp-sent",
		"word": "é",
		"trial_type": "html-keyboard-response",
		"trial_index": 40,
		"time_elapsed": 178634,
		"internal_node_id": "0.0-3.0-1.17"
	},
	{
		"rt": 929,
		"stimulus": "<span style=\"font-size:30px; font-family: monospace\">um</span>",
		"response": " ",
		"trial": "exp-sent",
		"word": "um",
		"trial_type": "html-keyboard-response",
		"trial_index": 41,
		"time_elapsed": 179817,
		"internal_node_id": "0.0-3.0-1.18"
	},
	{
		"rt": 2004,
		"stimulus": "<span style=\"font-size:30px; font-family: monospace\">arquiteto</span>",
		"response": " ",
		"trial": "exp-sent",
		"word": "arquiteto",
		"trial_type": "html-keyboard-response",
		"trial_index": 42,
		"time_elapsed": 182074,
		"internal_node_id": "0.0-3.0-1.19"
	},
	{
		"rt": 922,
		"stimulus": "<span style=\"font-size:30px; font-family: monospace\">muito</span>",
		"response": " ",
		"trial": "exp-sent",
		"word": "muito",
		"trial_type": "html-keyboard-response",
		"trial_index": 43,
		"time_elapsed": 183249,
		"internal_node_id": "0.0-3.0-1.20"
	},
	{
		"rt": 3008,
		"stimulus": "<span style=\"font-size:30px; font-family: monospace\">excêntrico.</span>",
		"response": " ",
		"trial": "exp-sent",
		"word": "excêntrico.",
		"trial_type": "html-keyboard-response",
		"trial_index": 44,
		"time_elapsed": 186522,
		"internal_node_id": "0.0-3.0-1.21"
	},
	{
		"rt": null,
		"stimulus": "<span style= \"font-size:30px; font-family: monospace\">+</span>",
		"response": null,
		"trial_part": "fixation",
		"trial_type": "html-keyboard-response",
		"trial_index": 45,
		"time_elapsed": 187778,
		"internal_node_id": "0.0-3.0-0.22-0.22"
	},
	{
		"rt": 810,
		"stimulus": "<span style=\"font-size:30px; font-family: monospace\">A</span>",
		"response": " ",
		"trial": "exp-sent",
		"word": "A",
		"trial_type": "html-keyboard-response",
		"trial_index": 46,
		"time_elapsed": 188841,
		"internal_node_id": "0.0-3.0-1.22"
	},
	{
		"rt": 948,
		"stimulus": "<span style=\"font-size:30px; font-family: monospace\">nossa</span>",
		"response": " ",
		"trial": "exp-sent",
		"word": "nossa",
		"trial_type": "html-keyboard-response",
		"trial_index": 47,
		"time_elapsed": 190042,
		"internal_node_id": "0.0-3.0-1.23"
	},
	{
		"rt": 914,
		"stimulus": "<span style=\"font-size:30px; font-family: monospace\">colega</span>",
		"response": " ",
		"trial": "exp-sent",
		"word": "colega",
		"trial_type": "html-keyboard-response",
		"trial_index": 48,
		"time_elapsed": 191209,
		"internal_node_id": "0.0-3.0-1.24"
	},
	{
		"rt": 875,
		"stimulus": "<span style=\"font-size:30px; font-family: monospace\">foi</span>",
		"response": " ",
		"trial": "exp-sent",
		"word": "foi",
		"trial_type": "html-keyboard-response",
		"trial_index": 49,
		"time_elapsed": 192337,
		"internal_node_id": "0.0-3.0-1.25"
	},
	{
		"rt": 915,
		"stimulus": "<span style=\"font-size:30px; font-family: monospace\">má</span>",
		"response": " ",
		"trial": "exp-sent",
		"word": "má",
		"trial_type": "html-keyboard-response",
		"trial_index": 50,
		"time_elapsed": 193506,
		"internal_node_id": "0.0-3.0-1.26"
	},
	{
		"rt": 1043,
		"stimulus": "<span style=\"font-size:30px; font-family: monospace\">com</span>",
		"response": " ",
		"trial": "exp-sent",
		"word": "com",
		"trial_type": "html-keyboard-response",
		"trial_index": 51,
		"time_elapsed": 194802,
		"internal_node_id": "0.0-3.0-1.27"
	},
	{
		"rt": 948,
		"stimulus": "<span style=\"font-size:30px; font-family: monospace\">as</span>",
		"response": " ",
		"trial": "exp-sent",
		"word": "as",
		"trial_type": "html-keyboard-response",
		"trial_index": 52,
		"time_elapsed": 196003,
		"internal_node_id": "0.0-3.0-1.28"
	},
	{
		"rt": 3228,
		"stimulus": "<span style=\"font-size:30px; font-family: monospace\">crianças.</span>",
		"response": " ",
		"trial": "exp-sent",
		"word": "crianças.",
		"trial_type": "html-keyboard-response",
		"trial_index": 53,
		"time_elapsed": 199483,
		"internal_node_id": "0.0-3.0-1.29"
	},
	{
		"rt": null,
		"stimulus": "<span style= \"font-size:30px; font-family: monospace\">+</span>",
		"response": null,
		"trial_part": "fixation",
		"trial_type": "html-keyboard-response",
		"trial_index": 54,
		"time_elapsed": 200736,
		"internal_node_id": "0.0-3.0-0.30-0.30"
	},
	{
		"rt": 828,
		"stimulus": "<span style=\"font-size:30px; font-family: monospace\">Virtudes</span>",
		"response": " ",
		"trial": "exp-sent",
		"word": "Virtudes",
		"trial_type": "html-keyboard-response",
		"trial_index": 55,
		"time_elapsed": 201817,
		"internal_node_id": "0.0-3.0-1.30"
	},
	{
		"rt": 827,
		"stimulus": "<span style=\"font-size:30px; font-family: monospace\">não</span>",
		"response": " ",
		"trial": "exp-sent",
		"word": "não",
		"trial_type": "html-keyboard-response",
		"trial_index": 56,
		"time_elapsed": 202906,
		"internal_node_id": "0.0-3.0-1.31"
	},
	{
		"rt": 746,
		"stimulus": "<span style=\"font-size:30px; font-family: monospace\">são</span>",
		"response": " ",
		"trial": "exp-sent",
		"word": "são",
		"trial_type": "html-keyboard-response",
		"trial_index": 57,
		"time_elapsed": 203906,
		"internal_node_id": "0.0-3.0-1.32"
	},
	{
		"rt": 1192,
		"stimulus": "<span style=\"font-size:30px; font-family: monospace\">preguiça,</span>",
		"response": " ",
		"trial": "exp-sent",
		"word": "preguiça,",
		"trial_type": "html-keyboard-response",
		"trial_index": 58,
		"time_elapsed": 205354,
		"internal_node_id": "0.0-3.0-1.33"
	},
	{
		"rt": 898,
		"stimulus": "<span style=\"font-size:30px; font-family: monospace\">gula</span>",
		"response": " ",
		"trial": "exp-sent",
		"word": "gula",
		"trial_type": "html-keyboard-response",
		"trial_index": 59,
		"time_elapsed": 206506,
		"internal_node_id": "0.0-3.0-1.34"
	},
	{
		"rt": 922,
		"stimulus": "<span style=\"font-size:30px; font-family: monospace\">nem</span>",
		"response": " ",
		"trial": "exp-sent",
		"word": "nem",
		"trial_type": "html-keyboard-response",
		"trial_index": 60,
		"time_elapsed": 207682,
		"internal_node_id": "0.0-3.0-1.35"
	},
	{
		"rt": 5340,
		"stimulus": "<span style=\"font-size:30px; font-family: monospace\">ganância.</span>",
		"response": " ",
		"trial": "comp",
		"word": "ganância.",
		"trial_type": "html-keyboard-response",
		"trial_index": 61,
		"time_elapsed": 213274,
		"internal_node_id": "0.0-3.0-1.36"
	},
	{
		"rt": 11380,
		"stimulus": "<span style=\"font-size:30px; font-family: monospace\">Preguiça é uma virtude?</span>",
		"response": "n",
		"question": "Preguiça é uma virtude?",
		"answer": "não",
		"trial": "comp",
		"trial_type": "html-keyboard-response",
		"trial_index": 62,
		"time_elapsed": 224907,
		"internal_node_id": "0.0-3.0-2.36-0.36",
		"accuracy": false
	},
	{
		"rt": null,
		"stimulus": "<span style= \"font-size:30px; font-family: monospace\">+</span>",
		"response": null,
		"trial_part": "fixation",
		"trial_type": "html-keyboard-response",
		"trial_index": 63,
		"time_elapsed": 226412,
		"internal_node_id": "0.0-3.0-0.37-0.37"
	},
	{
		"rt": 2081,
		"stimulus": "<span style=\"font-size:30px; font-family: monospace\">Ele</span>",
		"response": " ",
		"trial": "exp-sent",
		"word": "Ele",
		"trial_type": "html-keyboard-response",
		"trial_index": 64,
		"time_elapsed": 228746,
		"internal_node_id": "0.0-3.0-1.37"
	},
	{
		"rt": 812,
		"stimulus": "<span style=\"font-size:30px; font-family: monospace\">é</span>",
		"response": " ",
		"trial": "exp-sent",
		"word": "é",
		"trial_type": "html-keyboard-response",
		"trial_index": 65,
		"time_elapsed": 229810,
		"internal_node_id": "0.0-3.0-1.38"
	},
	{
		"rt": 771,
		"stimulus": "<span style=\"font-size:30px; font-family: monospace\">um</span>",
		"response": " ",
		"trial": "exp-sent",
		"word": "um",
		"trial_type": "html-keyboard-response",
		"trial_index": 66,
		"time_elapsed": 230834,
		"internal_node_id": "0.0-3.0-1.39"
	},
	{
		"rt": 964,
		"stimulus": "<span style=\"font-size:30px; font-family: monospace\">pai</span>",
		"response": " ",
		"trial": "exp-sent",
		"word": "pai",
		"trial_type": "html-keyboard-response",
		"trial_index": 67,
		"time_elapsed": 232050,
		"internal_node_id": "0.0-3.0-1.40"
	},
	{
		"rt": 1475,
		"stimulus": "<span style=\"font-size:30px; font-family: monospace\">ausente</span>",
		"response": " ",
		"trial": "exp-sent",
		"word": "ausente",
		"trial_type": "html-keyboard-response",
		"trial_index": 68,
		"time_elapsed": 233778,
		"internal_node_id": "0.0-3.0-1.41"
	},
	{
		"rt": 779,
		"stimulus": "<span style=\"font-size:30px; font-family: monospace\">e</span>",
		"response": " ",
		"trial": "exp-sent",
		"word": "e",
		"trial_type": "html-keyboard-response",
		"trial_index": 69,
		"time_elapsed": 234810,
		"internal_node_id": "0.0-3.0-1.42"
	},
	{
		"rt": 805,
		"stimulus": "<span style=\"font-size:30px; font-family: monospace\">muito</span>",
		"response": " ",
		"trial": "exp-sent",
		"word": "muito",
		"trial_type": "html-keyboard-response",
		"trial_index": 70,
		"time_elapsed": 235867,
		"internal_node_id": "0.0-3.0-1.43"
	},
	{
		"rt": 1299,
		"stimulus": "<span style=\"font-size:30px; font-family: monospace\">fofoqueiro.</span>",
		"response": " ",
		"trial": "exp-sent",
		"word": "fofoqueiro.",
		"trial_type": "html-keyboard-response",
		"trial_index": 71,
		"time_elapsed": 237419,
		"internal_node_id": "0.0-3.0-1.44"
	},
	{
		"rt": null,
		"stimulus": "<span style= \"font-size:30px; font-family: monospace\">+</span>",
		"response": null,
		"trial_part": "fixation",
		"trial_type": "html-keyboard-response",
		"trial_index": 72,
		"time_elapsed": 238674,
		"internal_node_id": "0.0-3.0-0.45-0.45"
	},
	{
		"rt": 629,
		"stimulus": "<span style=\"font-size:30px; font-family: monospace\">O</span>",
		"response": " ",
		"trial": "exp-sent",
		"word": "O",
		"trial_type": "html-keyboard-response",
		"trial_index": 73,
		"time_elapsed": 239555,
		"internal_node_id": "0.0-3.0-1.45"
	},
	{
		"rt": 851,
		"stimulus": "<span style=\"font-size:30px; font-family: monospace\">filho</span>",
		"response": " ",
		"trial": "exp-sent",
		"word": "filho",
		"trial_type": "html-keyboard-response",
		"trial_index": 74,
		"time_elapsed": 240658,
		"internal_node_id": "0.0-3.0-1.46"
	},
	{
		"rt": 1107,
		"stimulus": "<span style=\"font-size:30px; font-family: monospace\">lavou</span>",
		"response": " ",
		"trial": "exp-sent",
		"word": "lavou",
		"trial_type": "html-keyboard-response",
		"trial_index": 75,
		"time_elapsed": 242018,
		"internal_node_id": "0.0-3.0-1.47"
	},
	{
		"rt": 779,
		"stimulus": "<span style=\"font-size:30px; font-family: monospace\">a</span>",
		"response": " ",
		"trial": "exp-sent",
		"word": "a",
		"trial_type": "html-keyboard-response",
		"trial_index": 76,
		"time_elapsed": 243051,
		"internal_node_id": "0.0-3.0-1.48"
	},
	{
		"rt": 2171,
		"stimulus": "<span style=\"font-size:30px; font-family: monospace\">roupa</span>",
		"response": " ",
		"trial": "exp-sent",
		"word": "roupa",
		"trial_type": "html-keyboard-response",
		"trial_index": 77,
		"time_elapsed": 245475,
		"internal_node_id": "0.0-3.0-1.49"
	},
	{
		"rt": 644,
		"stimulus": "<span style=\"font-size:30px; font-family: monospace\">sem</span>",
		"response": " ",
		"trial": "exp-sent",
		"word": "sem",
		"trial_type": "html-keyboard-response",
		"trial_index": 78,
		"time_elapsed": 246371,
		"internal_node_id": "0.0-3.0-1.50"
	},
	{
		"rt": 739,
		"stimulus": "<span style=\"font-size:30px; font-family: monospace\">nenhuma</span>",
		"response": " ",
		"trial": "exp-sent",
		"word": "nenhuma",
		"trial_type": "html-keyboard-response",
		"trial_index": 79,
		"time_elapsed": 247363,
		"internal_node_id": "0.0-3.0-1.51"
	},
	{
		"rt": 1289,
		"stimulus": "<span style=\"font-size:30px; font-family: monospace\">ajuda.</span>",
		"response": " ",
		"trial": "exp-sent",
		"word": "ajuda.",
		"trial_type": "html-keyboard-response",
		"trial_index": 80,
		"time_elapsed": 248907,
		"internal_node_id": "0.0-3.0-1.52"
	},
	{
		"rt": null,
		"stimulus": "<span style= \"font-size:30px; font-family: monospace\">+</span>",
		"response": null,
		"trial_part": "fixation",
		"trial_type": "html-keyboard-response",
		"trial_index": 81,
		"time_elapsed": 250172,
		"internal_node_id": "0.0-3.0-0.53-0.53"
	},
	{
		"rt": 641,
		"stimulus": "<span style=\"font-size:30px; font-family: monospace\">O</span>",
		"response": " ",
		"trial": "exp-sent",
		"word": "O",
		"trial_type": "html-keyboard-response",
		"trial_index": 82,
		"time_elapsed": 251076,
		"internal_node_id": "0.0-3.0-1.53"
	},
	{
		"rt": 811,
		"stimulus": "<span style=\"font-size:30px; font-family: monospace\">menino</span>",
		"response": " ",
		"trial": "exp-sent",
		"word": "menino",
		"trial_type": "html-keyboard-response",
		"trial_index": 83,
		"time_elapsed": 252143,
		"internal_node_id": "0.0-3.0-1.54"
	},
	{
		"rt": 704,
		"stimulus": "<span style=\"font-size:30px; font-family: monospace\">quebrou</span>",
		"response": " ",
		"trial": "exp-sent",
		"word": "quebrou",
		"trial_type": "html-keyboard-response",
		"trial_index": 84,
		"time_elapsed": 253099,
		"internal_node_id": "0.0-3.0-1.55"
	},
	{
		"rt": 788,
		"stimulus": "<span style=\"font-size:30px; font-family: monospace\">a</span>",
		"response": " ",
		"trial": "exp-sent",
		"word": "a",
		"trial_type": "html-keyboard-response",
		"trial_index": 85,
		"time_elapsed": 254140,
		"internal_node_id": "0.0-3.0-1.56"
	},
	{
		"rt": 1250,
		"stimulus": "<span style=\"font-size:30px; font-family: monospace\">perna</span>",
		"response": " ",
		"trial": "exp-sent",
		"word": "perna",
		"trial_type": "html-keyboard-response",
		"trial_index": 86,
		"time_elapsed": 255644,
		"internal_node_id": "0.0-3.0-1.57"
	},
	{
		"rt": 803,
		"stimulus": "<span style=\"font-size:30px; font-family: monospace\">nos</span>",
		"response": " ",
		"trial": "exp-sent",
		"word": "nos",
		"trial_type": "html-keyboard-response",
		"trial_index": 87,
		"time_elapsed": 256699,
		"internal_node_id": "0.0-3.0-1.58"
	},
	{
		"rt": 1341,
		"stimulus": "<span style=\"font-size:30px; font-family: monospace\">esportes.</span>",
		"response": " ",
		"trial": "exp-sent",
		"word": "esportes.",
		"trial_type": "html-keyboard-response",
		"trial_index": 88,
		"time_elapsed": 258292,
		"internal_node_id": "0.0-3.0-1.59"
	},
	{
		"rt": null,
		"stimulus": "<span style= \"font-size:30px; font-family: monospace\">+</span>",
		"response": null,
		"trial_part": "fixation",
		"trial_type": "html-keyboard-response",
		"trial_index": 89,
		"time_elapsed": 259546,
		"internal_node_id": "0.0-3.0-0.60-0.60"
	},
	{
		"rt": 1839,
		"stimulus": "<span style=\"font-size:30px; font-family: monospace\">Ela</span>",
		"response": " ",
		"trial": "exp-sent",
		"word": "Ela",
		"trial_type": "html-keyboard-response",
		"trial_index": 90,
		"time_elapsed": 261636,
		"internal_node_id": "0.0-3.0-1.60"
	},
	{
		"rt": 722,
		"stimulus": "<span style=\"font-size:30px; font-family: monospace\">brincou</span>",
		"response": " ",
		"trial": "exp-sent",
		"word": "brincou",
		"trial_type": "html-keyboard-response",
		"trial_index": 91,
		"time_elapsed": 262611,
		"internal_node_id": "0.0-3.0-1.61"
	},
	{
		"rt": 931,
		"stimulus": "<span style=\"font-size:30px; font-family: monospace\">com</span>",
		"response": " ",
		"trial": "exp-sent",
		"word": "com",
		"trial_type": "html-keyboard-response",
		"trial_index": 92,
		"time_elapsed": 263795,
		"internal_node_id": "0.0-3.0-1.62"
	},
	{
		"rt": 1042,
		"stimulus": "<span style=\"font-size:30px; font-family: monospace\">uma</span>",
		"response": " ",
		"trial": "exp-sent",
		"word": "uma",
		"trial_type": "html-keyboard-response",
		"trial_index": 93,
		"time_elapsed": 265091,
		"internal_node_id": "0.0-3.0-1.63"
	},
	{
		"rt": 2084,
		"stimulus": "<span style=\"font-size:30px; font-family: monospace\">menina</span>",
		"response": " ",
		"trial": "exp-sent",
		"word": "menina",
		"trial_type": "html-keyboard-response",
		"trial_index": 94,
		"time_elapsed": 267429,
		"internal_node_id": "0.0-3.0-1.64"
	},
	{
		"rt": 1570,
		"stimulus": "<span style=\"font-size:30px; font-family: monospace\">da</span>",
		"response": " ",
		"trial": "exp-sent",
		"word": "da",
		"trial_type": "html-keyboard-response",
		"trial_index": 95,
		"time_elapsed": 269253,
		"internal_node_id": "0.0-3.0-1.65"
	},
	{
		"rt": 2323,
		"stimulus": "<span style=\"font-size:30px; font-family: monospace\">turma.</span>",
		"response": " ",
		"trial": "exp-sent",
		"word": "turma.",
		"trial_type": "html-keyboard-response",
		"trial_index": 96,
		"time_elapsed": 271828,
		"internal_node_id": "0.0-3.0-1.66"
	},
	{
		"rt": null,
		"stimulus": "<span style= \"font-size:30px; font-family: monospace\">+</span>",
		"response": null,
		"trial_part": "fixation",
		"trial_type": "html-keyboard-response",
		"trial_index": 97,
		"time_elapsed": 273083,
		"internal_node_id": "0.0-3.0-0.67-0.67"
	},
	{
		"rt": 856,
		"stimulus": "<span style=\"font-size:30px; font-family: monospace\">Ele</span>",
		"response": " ",
		"trial": "exp-sent",
		"word": "Ele",
		"trial_type": "html-keyboard-response",
		"trial_index": 98,
		"time_elapsed": 274204,
		"internal_node_id": "0.0-3.0-1.67"
	},
	{
		"rt": 869,
		"stimulus": "<span style=\"font-size:30px; font-family: monospace\">esteve</span>",
		"response": " ",
		"trial": "exp-sent",
		"word": "esteve",
		"trial_type": "html-keyboard-response",
		"trial_index": 99,
		"time_elapsed": 275327,
		"internal_node_id": "0.0-3.0-1.68"
	},
	{
		"rt": 848,
		"stimulus": "<span style=\"font-size:30px; font-family: monospace\">no</span>",
		"response": " ",
		"trial": "exp-sent",
		"word": "no",
		"trial_type": "html-keyboard-response",
		"trial_index": 100,
		"time_elapsed": 276428,
		"internal_node_id": "0.0-3.0-1.69"
	},
	{
		"rt": 1201,
		"stimulus": "<span style=\"font-size:30px; font-family: monospace\">escritório</span>",
		"response": " ",
		"trial": "exp-sent",
		"word": "escritório",
		"trial_type": "html-keyboard-response",
		"trial_index": 101,
		"time_elapsed": 277884,
		"internal_node_id": "0.0-3.0-1.70"
	},
	{
		"rt": 794,
		"stimulus": "<span style=\"font-size:30px; font-family: monospace\">o</span>",
		"response": " ",
		"trial": "exp-sent",
		"word": "o",
		"trial_type": "html-keyboard-response",
		"trial_index": 102,
		"time_elapsed": 278939,
		"internal_node_id": "0.0-3.0-1.71"
	},
	{
		"rt": 1436,
		"stimulus": "<span style=\"font-size:30px; font-family: monospace\">dia</span>",
		"response": " ",
		"trial": "exp-sent",
		"word": "dia",
		"trial_type": "html-keyboard-response",
		"trial_index": 103,
		"time_elapsed": 280628,
		"internal_node_id": "0.0-3.0-1.72"
	},
	{
		"rt": 755,
		"stimulus": "<span style=\"font-size:30px; font-family: monospace\">inteiro.</span>",
		"response": " ",
		"trial": "comp",
		"word": "inteiro.",
		"trial_type": "html-keyboard-response",
		"trial_index": 104,
		"time_elapsed": 281638,
		"internal_node_id": "0.0-3.0-1.73"
	},
	{
		"rt": 3010,
		"stimulus": "<span style=\"font-size:30px; font-family: monospace\">Ele esteve no parque o dia inteiro?</span>",
		"response": "n",
		"question": "Ele esteve no parque o dia inteiro?",
		"answer": "não",
		"trial": "comp",
		"trial_type": "html-keyboard-response",
		"trial_index": 105,
		"time_elapsed": 284901,
		"internal_node_id": "0.0-3.0-2.73-0.73",
		"accuracy": false
	},
	{
		"rt": null,
		"stimulus": "<span style= \"font-size:30px; font-family: monospace\">+</span>",
		"response": null,
		"trial_part": "fixation",
		"trial_type": "html-keyboard-response",
		"trial_index": 106,
		"time_elapsed": 286406,
		"internal_node_id": "0.0-3.0-0.74-0.74"
	},
	{
		"rt": 1410,
		"stimulus": "<span style=\"font-size:30px; font-family: monospace\">No</span>",
		"response": " ",
		"trial": "exp-sent",
		"word": "No",
		"trial_type": "html-keyboard-response",
		"trial_index": 107,
		"time_elapsed": 288068,
		"internal_node_id": "0.0-3.0-1.74"
	},
	{
		"rt": 818,
		"stimulus": "<span style=\"font-size:30px; font-family: monospace\">passado</span>",
		"response": " ",
		"trial": "exp-sent",
		"word": "passado",
		"trial_type": "html-keyboard-response",
		"trial_index": 108,
		"time_elapsed": 289140,
		"internal_node_id": "0.0-3.0-1.75"
	},
	{
		"rt": 900,
		"stimulus": "<span style=\"font-size:30px; font-family: monospace\">houve</span>",
		"response": " ",
		"trial": "exp-sent",
		"word": "houve",
		"trial_type": "html-keyboard-response",
		"trial_index": 109,
		"time_elapsed": 290293,
		"internal_node_id": "0.0-3.0-1.76"
	},
	{
		"rt": 1033,
		"stimulus": "<span style=\"font-size:30px; font-family: monospace\">uma</span>",
		"response": " ",
		"trial": "exp-sent",
		"word": "uma",
		"trial_type": "html-keyboard-response",
		"trial_index": 110,
		"time_elapsed": 291580,
		"internal_node_id": "0.0-3.0-1.77"
	},
	{
		"rt": 1315,
		"stimulus": "<span style=\"font-size:30px; font-family: monospace\">rebelião</span>",
		"response": " ",
		"trial": "exp-sent",
		"word": "rebelião",
		"trial_type": "html-keyboard-response",
		"trial_index": 111,
		"time_elapsed": 293148,
		"internal_node_id": "0.0-3.0-1.78"
	},
	{
		"rt": 860,
		"stimulus": "<span style=\"font-size:30px; font-family: monospace\">nesta</span>",
		"response": " ",
		"trial": "exp-sent",
		"word": "nesta",
		"trial_type": "html-keyboard-response",
		"trial_index": 112,
		"time_elapsed": 294261,
		"internal_node_id": "0.0-3.0-1.79"
	},
	{
		"rt": 1386,
		"stimulus": "<span style=\"font-size:30px; font-family: monospace\">cidade.</span>",
		"response": " ",
		"trial": "exp-sent",
		"word": "cidade.",
		"trial_type": "html-keyboard-response",
		"trial_index": 113,
		"time_elapsed": 295900,
		"internal_node_id": "0.0-3.0-1.80"
	},
	{
		"rt": null,
		"stimulus": "<span style= \"font-size:30px; font-family: monospace\">+</span>",
		"response": null,
		"trial_part": "fixation",
		"trial_type": "html-keyboard-response",
		"trial_index": 114,
		"time_elapsed": 297154,
		"internal_node_id": "0.0-3.0-0.81-0.81"
	},
	{
		"rt": 635,
		"stimulus": "<span style=\"font-size:30px; font-family: monospace\">Ele</span>",
		"response": " ",
		"trial": "exp-sent",
		"word": "Ele",
		"trial_type": "html-keyboard-response",
		"trial_index": 115,
		"time_elapsed": 298052,
		"internal_node_id": "0.0-3.0-1.81"
	},
	{
		"rt": 865,
		"stimulus": "<span style=\"font-size:30px; font-family: monospace\">fundou</span>",
		"response": " ",
		"trial": "exp-sent",
		"word": "fundou",
		"trial_type": "html-keyboard-response",
		"trial_index": 116,
		"time_elapsed": 299173,
		"internal_node_id": "0.0-3.0-1.82"
	},
	{
		"rt": 674,
		"stimulus": "<span style=\"font-size:30px; font-family: monospace\">uma</span>",
		"response": " ",
		"trial": "exp-sent",
		"word": "uma",
		"trial_type": "html-keyboard-response",
		"trial_index": 117,
		"time_elapsed": 300101,
		"internal_node_id": "0.0-3.0-1.83"
	},
	{
		"rt": 867,
		"stimulus": "<span style=\"font-size:30px; font-family: monospace\">empresa</span>",
		"response": " ",
		"trial": "exp-sent",
		"word": "empresa",
		"trial_type": "html-keyboard-response",
		"trial_index": 118,
		"time_elapsed": 301221,
		"internal_node_id": "0.0-3.0-1.84"
	},
	{
		"rt": 811,
		"stimulus": "<span style=\"font-size:30px; font-family: monospace\">privada</span>",
		"response": " ",
		"trial": "exp-sent",
		"word": "privada",
		"trial_type": "html-keyboard-response",
		"trial_index": 119,
		"time_elapsed": 302285,
		"internal_node_id": "0.0-3.0-1.85"
	},
	{
		"rt": 786,
		"stimulus": "<span style=\"font-size:30px; font-family: monospace\">sem</span>",
		"response": " ",
		"trial": "exp-sent",
		"word": "sem",
		"trial_type": "html-keyboard-response",
		"trial_index": 120,
		"time_elapsed": 303324,
		"internal_node_id": "0.0-3.0-1.86"
	},
	{
		"rt": 932,
		"stimulus": "<span style=\"font-size:30px; font-family: monospace\">ajuda.</span>",
		"response": " ",
		"trial": "exp-sent",
		"word": "ajuda.",
		"trial_type": "html-keyboard-response",
		"trial_index": 121,
		"time_elapsed": 304510,
		"internal_node_id": "0.0-3.0-1.87"
	},
	{
		"rt": null,
		"stimulus": "<span style= \"font-size:30px; font-family: monospace\">+</span>",
		"response": null,
		"trial_part": "fixation",
		"trial_type": "html-keyboard-response",
		"trial_index": 122,
		"time_elapsed": 305765,
		"internal_node_id": "0.0-3.0-0.88-0.88"
	},
	{
		"rt": 1237,
		"stimulus": "<span style=\"font-size:30px; font-family: monospace\">As</span>",
		"response": " ",
		"trial": "exp-sent",
		"word": "As",
		"trial_type": "html-keyboard-response",
		"trial_index": 123,
		"time_elapsed": 307255,
		"internal_node_id": "0.0-3.0-1.88"
	},
	{
		"rt": 712,
		"stimulus": "<span style=\"font-size:30px; font-family: monospace\">meninas</span>",
		"response": " ",
		"trial": "exp-sent",
		"word": "meninas",
		"trial_type": "html-keyboard-response",
		"trial_index": 124,
		"time_elapsed": 308220,
		"internal_node_id": "0.0-3.0-1.89"
	},
	{
		"rt": 1027,
		"stimulus": "<span style=\"font-size:30px; font-family: monospace\">encontraram</span>",
		"response": " ",
		"trial": "exp-sent",
		"word": "encontraram",
		"trial_type": "html-keyboard-response",
		"trial_index": 125,
		"time_elapsed": 309501,
		"internal_node_id": "0.0-3.0-1.90"
	},
	{
		"rt": 628,
		"stimulus": "<span style=\"font-size:30px; font-family: monospace\">um</span>",
		"response": " ",
		"trial": "exp-sent",
		"word": "um",
		"trial_type": "html-keyboard-response",
		"trial_index": 126,
		"time_elapsed": 310381,
		"internal_node_id": "0.0-3.0-1.91"
	},
	{
		"rt": 755,
		"stimulus": "<span style=\"font-size:30px; font-family: monospace\">rato</span>",
		"response": " ",
		"trial": "exp-sent",
		"word": "rato",
		"trial_type": "html-keyboard-response",
		"trial_index": 127,
		"time_elapsed": 311389,
		"internal_node_id": "0.0-3.0-1.92"
	},
	{
		"rt": 852,
		"stimulus": "<span style=\"font-size:30px; font-family: monospace\">dentro</span>",
		"response": " ",
		"trial": "exp-sent",
		"word": "dentro",
		"trial_type": "html-keyboard-response",
		"trial_index": 128,
		"time_elapsed": 312493,
		"internal_node_id": "0.0-3.0-1.93"
	},
	{
		"rt": 659,
		"stimulus": "<span style=\"font-size:30px; font-family: monospace\">de</span>",
		"response": " ",
		"trial": "exp-sent",
		"word": "de",
		"trial_type": "html-keyboard-response",
		"trial_index": 129,
		"time_elapsed": 313405,
		"internal_node_id": "0.0-3.0-1.94"
	},
	{
		"rt": 939,
		"stimulus": "<span style=\"font-size:30px; font-family: monospace\">casa.</span>",
		"response": " ",
		"trial": "exp-sent",
		"word": "casa.",
		"trial_type": "html-keyboard-response",
		"trial_index": 130,
		"time_elapsed": 314597,
		"internal_node_id": "0.0-3.0-1.95"
	},
	{
		"rt": null,
		"stimulus": "<span style= \"font-size:30px; font-family: monospace\">+</span>",
		"response": null,
		"trial_part": "fixation",
		"trial_type": "html-keyboard-response",
		"trial_index": 131,
		"time_elapsed": 315853,
		"internal_node_id": "0.0-3.0-0.96-0.96"
	},
	{
		"rt": 652,
		"stimulus": "<span style=\"font-size:30px; font-family: monospace\">O</span>",
		"response": " ",
		"trial": "exp-sent",
		"word": "O",
		"trial_type": "html-keyboard-response",
		"trial_index": 132,
		"time_elapsed": 316757,
		"internal_node_id": "0.0-3.0-1.96"
	},
	{
		"rt": 699,
		"stimulus": "<span style=\"font-size:30px; font-family: monospace\">texto</span>",
		"response": " ",
		"trial": "exp-sent",
		"word": "texto",
		"trial_type": "html-keyboard-response",
		"trial_index": 133,
		"time_elapsed": 317710,
		"internal_node_id": "0.0-3.0-1.97"
	},
	{
		"rt": 746,
		"stimulus": "<span style=\"font-size:30px; font-family: monospace\">tinha</span>",
		"response": " ",
		"trial": "exp-sent",
		"word": "tinha",
		"trial_type": "html-keyboard-response",
		"trial_index": 134,
		"time_elapsed": 318709,
		"internal_node_id": "0.0-3.0-1.98"
	},
	{
		"rt": 676,
		"stimulus": "<span style=\"font-size:30px; font-family: monospace\">ideias</span>",
		"response": " ",
		"trial": "exp-sent",
		"word": "ideias",
		"trial_type": "html-keyboard-response",
		"trial_index": 135,
		"time_elapsed": 319637,
		"internal_node_id": "0.0-3.0-1.99"
	},
	{
		"rt": 811,
		"stimulus": "<span style=\"font-size:30px; font-family: monospace\">vagas</span>",
		"response": " ",
		"trial": "exp-sent",
		"word": "vagas",
		"trial_type": "html-keyboard-response",
		"trial_index": 136,
		"time_elapsed": 320702,
		"internal_node_id": "0.0-3.0-1.100"
	},
	{
		"rt": 675,
		"stimulus": "<span style=\"font-size:30px; font-family: monospace\">e</span>",
		"response": " ",
		"trial": "exp-sent",
		"word": "e",
		"trial_type": "html-keyboard-response",
		"trial_index": 137,
		"time_elapsed": 321630,
		"internal_node_id": "0.0-3.0-1.101"
	},
	{
		"rt": 747,
		"stimulus": "<span style=\"font-size:30px; font-family: monospace\">confusas.</span>",
		"response": " ",
		"trial": "exp-sent",
		"word": "confusas.",
		"trial_type": "html-keyboard-response",
		"trial_index": 138,
		"time_elapsed": 322631,
		"internal_node_id": "0.0-3.0-1.102"
	},
	{
		"rt": null,
		"stimulus": "<span style= \"font-size:30px; font-family: monospace\">+</span>",
		"response": null,
		"trial_part": "fixation",
		"trial_type": "html-keyboard-response",
		"trial_index": 139,
		"time_elapsed": 323886,
		"internal_node_id": "0.0-3.0-0.103-0.103"
	},
	{
		"rt": 459,
		"stimulus": "<span style=\"font-size:30px; font-family: monospace\">As</span>",
		"response": " ",
		"trial": "exp-sent",
		"word": "As",
		"trial_type": "html-keyboard-response",
		"trial_index": 140,
		"time_elapsed": 324599,
		"internal_node_id": "0.0-3.0-1.103"
	},
	{
		"rt": 667,
		"stimulus": "<span style=\"font-size:30px; font-family: monospace\">crianças</span>",
		"response": " ",
		"trial": "exp-sent",
		"word": "crianças",
		"trial_type": "html-keyboard-response",
		"trial_index": 141,
		"time_elapsed": 325519,
		"internal_node_id": "0.0-3.0-1.104"
	},
	{
		"rt": 626,
		"stimulus": "<span style=\"font-size:30px; font-family: monospace\">viram</span>",
		"response": " ",
		"trial": "exp-sent",
		"word": "viram",
		"trial_type": "html-keyboard-response",
		"trial_index": 142,
		"time_elapsed": 326398,
		"internal_node_id": "0.0-3.0-1.105"
	},
	{
		"rt": 809,
		"stimulus": "<span style=\"font-size:30px; font-family: monospace\">a</span>",
		"response": " ",
		"trial": "exp-sent",
		"word": "a",
		"trial_type": "html-keyboard-response",
		"trial_index": 143,
		"time_elapsed": 327462,
		"internal_node_id": "0.0-3.0-1.106"
	},
	{
		"rt": 1451,
		"stimulus": "<span style=\"font-size:30px; font-family: monospace\">acrobata</span>",
		"response": " ",
		"trial": "exp-sent",
		"word": "acrobata",
		"trial_type": "html-keyboard-response",
		"trial_index": 144,
		"time_elapsed": 329166,
		"internal_node_id": "0.0-3.0-1.107"
	},
	{
		"rt": 975,
		"stimulus": "<span style=\"font-size:30px; font-family: monospace\">talentosa</span>",
		"response": " ",
		"trial": "exp-sent",
		"word": "talentosa",
		"trial_type": "html-keyboard-response",
		"trial_index": 145,
		"time_elapsed": 330400,
		"internal_node_id": "0.0-3.0-1.108"
	},
	{
		"rt": 889,
		"stimulus": "<span style=\"font-size:30px; font-family: monospace\">no</span>",
		"response": " ",
		"trial": "exp-sent",
		"word": "no",
		"trial_type": "html-keyboard-response",
		"trial_index": 146,
		"time_elapsed": 331542,
		"internal_node_id": "0.0-3.0-1.109"
	},
	{
		"rt": 1867,
		"stimulus": "<span style=\"font-size:30px; font-family: monospace\">circo.</span>",
		"response": " ",
		"trial": "comp",
		"word": "circo.",
		"trial_type": "html-keyboard-response",
		"trial_index": 147,
		"time_elapsed": 333663,
		"internal_node_id": "0.0-3.0-1.110"
	},
	{
		"rt": 13730,
		"stimulus": "<span style=\"font-size:30px; font-family: monospace\">As crianças viram o palhaço no circo?</span>",
		"response": "n",
		"question": "As crianças viram o palhaço no circo?",
		"answer": "não",
		"trial": "comp",
		"trial_type": "html-keyboard-response",
		"trial_index": 148,
		"time_elapsed": 347647,
		"internal_node_id": "0.0-3.0-2.110-0.110",
		"accuracy": false
	},
	{
		"rt": null,
		"stimulus": "<span style= \"font-size:30px; font-family: monospace\">+</span>",
		"response": null,
		"trial_part": "fixation",
		"trial_type": "html-keyboard-response",
		"trial_index": 149,
		"time_elapsed": 349152,
		"internal_node_id": "0.0-3.0-0.111-0.111"
	},
	{
		"rt": 1729,
		"stimulus": "<span style=\"font-size:30px; font-family: monospace\">Barulho</span>",
		"response": " ",
		"trial": "exp-sent",
		"word": "Barulho",
		"trial_type": "html-keyboard-response",
		"trial_index": 150,
		"time_elapsed": 351134,
		"internal_node_id": "0.0-3.0-1.111"
	},
	{
		"rt": 771,
		"stimulus": "<span style=\"font-size:30px; font-family: monospace\">de</span>",
		"response": " ",
		"trial": "exp-sent",
		"word": "de",
		"trial_type": "html-keyboard-response",
		"trial_index": 151,
		"time_elapsed": 352158,
		"internal_node_id": "0.0-3.0-1.112"
	},
	{
		"rt": 946,
		"stimulus": "<span style=\"font-size:30px; font-family: monospace\">carros</span>",
		"response": " ",
		"trial": "exp-sent",
		"word": "carros",
		"trial_type": "html-keyboard-response",
		"trial_index": 152,
		"time_elapsed": 353358,
		"internal_node_id": "0.0-3.0-1.113"
	},
	{
		"rt": 876,
		"stimulus": "<span style=\"font-size:30px; font-family: monospace\">é</span>",
		"response": " ",
		"trial": "exp-sent",
		"word": "é",
		"trial_type": "html-keyboard-response",
		"trial_index": 153,
		"time_elapsed": 354486,
		"internal_node_id": "0.0-3.0-1.114"
	},
	{
		"rt": 1779,
		"stimulus": "<span style=\"font-size:30px; font-family: monospace\">irritante</span>",
		"response": " ",
		"trial": "exp-sent",
		"word": "irritante",
		"trial_type": "html-keyboard-response",
		"trial_index": 154,
		"time_elapsed": 356518,
		"internal_node_id": "0.0-3.0-1.115"
	},
	{
		"rt": 779,
		"stimulus": "<span style=\"font-size:30px; font-family: monospace\">para</span>",
		"response": " ",
		"trial": "exp-sent",
		"word": "para",
		"trial_type": "html-keyboard-response",
		"trial_index": 155,
		"time_elapsed": 357550,
		"internal_node_id": "0.0-3.0-1.116"
	},
	{
		"rt": 902,
		"stimulus": "<span style=\"font-size:30px; font-family: monospace\">a</span>",
		"response": " ",
		"trial": "exp-sent",
		"word": "a",
		"trial_type": "html-keyboard-response",
		"trial_index": 156,
		"time_elapsed": 358718,
		"internal_node_id": "0.0-3.0-1.117"
	},
	{
		"rt": 1868,
		"stimulus": "<span style=\"font-size:30px; font-family: monospace\">moça.</span>",
		"response": " ",
		"trial": "exp-sent",
		"word": "moça.",
		"trial_type": "html-keyboard-response",
		"trial_index": 157,
		"time_elapsed": 360840,
		"internal_node_id": "0.0-3.0-1.118"
	},
	{
		"rt": null,
		"stimulus": "<span style= \"font-size:30px; font-family: monospace\">+</span>",
		"response": null,
		"trial_part": "fixation",
		"trial_type": "html-keyboard-response",
		"trial_index": 158,
		"time_elapsed": 362093,
		"internal_node_id": "0.0-3.0-0.119-0.119"
	},
	{
		"rt": 748,
		"stimulus": "<span style=\"font-size:30px; font-family: monospace\">A</span>",
		"response": " ",
		"trial": "exp-sent",
		"word": "A",
		"trial_type": "html-keyboard-response",
		"trial_index": 159,
		"time_elapsed": 363095,
		"internal_node_id": "0.0-3.0-1.119"
	},
	{
		"rt": 867,
		"stimulus": "<span style=\"font-size:30px; font-family: monospace\">loja</span>",
		"response": " ",
		"trial": "exp-sent",
		"word": "loja",
		"trial_type": "html-keyboard-response",
		"trial_index": 160,
		"time_elapsed": 364214,
		"internal_node_id": "0.0-3.0-1.120"
	},
	{
		"rt": 958,
		"stimulus": "<span style=\"font-size:30px; font-family: monospace\">também</span>",
		"response": " ",
		"trial": "exp-sent",
		"word": "também",
		"trial_type": "html-keyboard-response",
		"trial_index": 161,
		"time_elapsed": 365424,
		"internal_node_id": "0.0-3.0-1.121"
	},
	{
		"rt": 1058,
		"stimulus": "<span style=\"font-size:30px; font-family: monospace\">vende</span>",
		"response": " ",
		"trial": "exp-sent",
		"word": "vende",
		"trial_type": "html-keyboard-response",
		"trial_index": 162,
		"time_elapsed": 366735,
		"internal_node_id": "0.0-3.0-1.122"
	},
	{
		"rt": 979,
		"stimulus": "<span style=\"font-size:30px; font-family: monospace\">taça</span>",
		"response": " ",
		"trial": "exp-sent",
		"word": "taça",
		"trial_type": "html-keyboard-response",
		"trial_index": 163,
		"time_elapsed": 367967,
		"internal_node_id": "0.0-3.0-1.123"
	},
	{
		"rt": 690,
		"stimulus": "<span style=\"font-size:30px; font-family: monospace\">de</span>",
		"response": " ",
		"trial": "exp-sent",
		"word": "de",
		"trial_type": "html-keyboard-response",
		"trial_index": 164,
		"time_elapsed": 368911,
		"internal_node_id": "0.0-3.0-1.124"
	},
	{
		"rt": 1042,
		"stimulus": "<span style=\"font-size:30px; font-family: monospace\">vinho</span>",
		"response": " ",
		"trial": "exp-sent",
		"word": "vinho",
		"trial_type": "html-keyboard-response",
		"trial_index": 165,
		"time_elapsed": 370207,
		"internal_node_id": "0.0-3.0-1.125"
	},
	{
		"rt": 636,
		"stimulus": "<span style=\"font-size:30px; font-family: monospace\">e</span>",
		"response": " ",
		"trial": "exp-sent",
		"word": "e",
		"trial_type": "html-keyboard-response",
		"trial_index": 166,
		"time_elapsed": 371095,
		"internal_node_id": "0.0-3.0-1.126"
	},
	{
		"rt": 1444,
		"stimulus": "<span style=\"font-size:30px; font-family: monospace\">espumante.</span>",
		"response": " ",
		"trial": "exp-sent",
		"word": "espumante.",
		"trial_type": "html-keyboard-response",
		"trial_index": 167,
		"time_elapsed": 372792,
		"internal_node_id": "0.0-3.0-1.127"
	},
	{
		"rt": null,
		"stimulus": "<span style= \"font-size:30px; font-family: monospace\">+</span>",
		"response": null,
		"trial_part": "fixation",
		"trial_type": "html-keyboard-response",
		"trial_index": 168,
		"time_elapsed": 374045,
		"internal_node_id": "0.0-3.0-0.128-0.128"
	},
	{
		"rt": 779,
		"stimulus": "<span style=\"font-size:30px; font-family: monospace\">A</span>",
		"response": " ",
		"trial": "exp-sent",
		"word": "A",
		"trial_type": "html-keyboard-response",
		"trial_index": 169,
		"time_elapsed": 375079,
		"internal_node_id": "0.0-3.0-1.128"
	},
	{
		"rt": 940,
		"stimulus": "<span style=\"font-size:30px; font-family: monospace\">bruxa</span>",
		"response": " ",
		"trial": "exp-sent",
		"word": "bruxa",
		"trial_type": "html-keyboard-response",
		"trial_index": 170,
		"time_elapsed": 376271,
		"internal_node_id": "0.0-3.0-1.129"
	},
	{
		"rt": 1188,
		"stimulus": "<span style=\"font-size:30px; font-family: monospace\">tinha</span>",
		"response": " ",
		"trial": "exp-sent",
		"word": "tinha",
		"trial_type": "html-keyboard-response",
		"trial_index": 171,
		"time_elapsed": 377711,
		"internal_node_id": "0.0-3.0-1.130"
	},
	{
		"rt": 1032,
		"stimulus": "<span style=\"font-size:30px; font-family: monospace\">uma</span>",
		"response": " ",
		"trial": "exp-sent",
		"word": "uma",
		"trial_type": "html-keyboard-response",
		"trial_index": 172,
		"time_elapsed": 379000,
		"internal_node_id": "0.0-3.0-1.131"
	},
	{
		"rt": 2419,
		"stimulus": "<span style=\"font-size:30px; font-family: monospace\">vassoura</span>",
		"response": " ",
		"trial": "exp-sent",
		"word": "vassoura",
		"trial_type": "html-keyboard-response",
		"trial_index": 173,
		"time_elapsed": 381672,
		"internal_node_id": "0.0-3.0-1.132"
	},
	{
		"rt": 714,
		"stimulus": "<span style=\"font-size:30px; font-family: monospace\">e</span>",
		"response": " ",
		"trial": "exp-sent",
		"word": "e",
		"trial_type": "html-keyboard-response",
		"trial_index": 174,
		"time_elapsed": 382641,
		"internal_node_id": "0.0-3.0-1.133"
	},
	{
		"rt": 871,
		"stimulus": "<span style=\"font-size:30px; font-family: monospace\">um</span>",
		"response": " ",
		"trial": "exp-sent",
		"word": "um",
		"trial_type": "html-keyboard-response",
		"trial_index": 175,
		"time_elapsed": 383768,
		"internal_node_id": "0.0-3.0-1.134"
	},
	{
		"rt": 1761,
		"stimulus": "<span style=\"font-size:30px; font-family: monospace\">gato.</span>",
		"response": " ",
		"trial": "exp-sent",
		"word": "gato.",
		"trial_type": "html-keyboard-response",
		"trial_index": 176,
		"time_elapsed": 385784,
		"internal_node_id": "0.0-3.0-1.135"
	},
	{
		"rt": null,
		"stimulus": "<span style= \"font-size:30px; font-family: monospace\">+</span>",
		"response": null,
		"trial_part": "fixation",
		"trial_type": "html-keyboard-response",
		"trial_index": 177,
		"time_elapsed": 387039,
		"internal_node_id": "0.0-3.0-0.136-0.136"
	},
	{
		"rt": 699,
		"stimulus": "<span style=\"font-size:30px; font-family: monospace\">Eu</span>",
		"response": " ",
		"trial": "exp-sent",
		"word": "Eu",
		"trial_type": "html-keyboard-response",
		"trial_index": 178,
		"time_elapsed": 387993,
		"internal_node_id": "0.0-3.0-1.136"
	},
	{
		"rt": 707,
		"stimulus": "<span style=\"font-size:30px; font-family: monospace\">me</span>",
		"response": " ",
		"trial": "exp-sent",
		"word": "me",
		"trial_type": "html-keyboard-response",
		"trial_index": 179,
		"time_elapsed": 388952,
		"internal_node_id": "0.0-3.0-1.137"
	},
	{
		"rt": 899,
		"stimulus": "<span style=\"font-size:30px; font-family: monospace\">divirto</span>",
		"response": " ",
		"trial": "exp-sent",
		"word": "divirto",
		"trial_type": "html-keyboard-response",
		"trial_index": 180,
		"time_elapsed": 390104,
		"internal_node_id": "0.0-3.0-1.138"
	},
	{
		"rt": 836,
		"stimulus": "<span style=\"font-size:30px; font-family: monospace\">em</span>",
		"response": " ",
		"trial": "exp-sent",
		"word": "em",
		"trial_type": "html-keyboard-response",
		"trial_index": 181,
		"time_elapsed": 391193,
		"internal_node_id": "0.0-3.0-1.139"
	},
	{
		"rt": 1162,
		"stimulus": "<span style=\"font-size:30px; font-family: monospace\">festas</span>",
		"response": " ",
		"trial": "exp-sent",
		"word": "festas",
		"trial_type": "html-keyboard-response",
		"trial_index": 182,
		"time_elapsed": 392607,
		"internal_node_id": "0.0-3.0-1.140"
	},
	{
		"rt": 716,
		"stimulus": "<span style=\"font-size:30px; font-family: monospace\">de</span>",
		"response": " ",
		"trial": "exp-sent",
		"word": "de",
		"trial_type": "html-keyboard-response",
		"trial_index": 183,
		"time_elapsed": 393576,
		"internal_node_id": "0.0-3.0-1.141"
	},
	{
		"rt": 1087,
		"stimulus": "<span style=\"font-size:30px; font-family: monospace\">criança.</span>",
		"response": " ",
		"trial": "exp-sent",
		"word": "criança.",
		"trial_type": "html-keyboard-response",
		"trial_index": 184,
		"time_elapsed": 394921,
		"internal_node_id": "0.0-3.0-1.142"
	},
	{
		"rt": null,
		"stimulus": "<span style= \"font-size:30px; font-family: monospace\">+</span>",
		"response": null,
		"trial_part": "fixation",
		"trial_type": "html-keyboard-response",
		"trial_index": 185,
		"time_elapsed": 396181,
		"internal_node_id": "0.0-3.0-0.143-0.143"
	},
	{
		"rt": 614,
		"stimulus": "<span style=\"font-size:30px; font-family: monospace\">A</span>",
		"response": " ",
		"trial": "exp-sent",
		"word": "A",
		"trial_type": "html-keyboard-response",
		"trial_index": 186,
		"time_elapsed": 397048,
		"internal_node_id": "0.0-3.0-1.143"
	},
	{
		"rt": 775,
		"stimulus": "<span style=\"font-size:30px; font-family: monospace\">janela</span>",
		"response": " ",
		"trial": "exp-sent",
		"word": "janela",
		"trial_type": "html-keyboard-response",
		"trial_index": 187,
		"time_elapsed": 398088,
		"internal_node_id": "0.0-3.0-1.144"
	},
	{
		"rt": 1010,
		"stimulus": "<span style=\"font-size:30px; font-family: monospace\">alta</span>",
		"response": " ",
		"trial": "exp-sent",
		"word": "alta",
		"trial_type": "html-keyboard-response",
		"trial_index": 188,
		"time_elapsed": 399352,
		"internal_node_id": "0.0-3.0-1.145"
	},
	{
		"rt": 2324,
		"stimulus": "<span style=\"font-size:30px; font-family: monospace\">estava</span>",
		"response": " ",
		"trial": "exp-sent",
		"word": "estava",
		"trial_type": "html-keyboard-response",
		"trial_index": 189,
		"time_elapsed": 401930,
		"internal_node_id": "0.0-3.0-1.146"
	},
	{
		"rt": 2905,
		"stimulus": "<span style=\"font-size:30px; font-family: monospace\">quebrada</span>",
		"response": " ",
		"trial": "exp-sent",
		"word": "quebrada",
		"trial_type": "html-keyboard-response",
		"trial_index": 190,
		"time_elapsed": 405088,
		"internal_node_id": "0.0-3.0-1.147"
	},
	{
		"rt": 731,
		"stimulus": "<span style=\"font-size:30px; font-family: monospace\">desde</span>",
		"response": " ",
		"trial": "exp-sent",
		"word": "desde",
		"trial_type": "html-keyboard-response",
		"trial_index": 191,
		"time_elapsed": 406072,
		"internal_node_id": "0.0-3.0-1.148"
	},
	{
		"rt": 4445,
		"stimulus": "<span style=\"font-size:30px; font-family: monospace\">ontem.</span>",
		"response": " ",
		"trial": "comp",
		"word": "ontem.",
		"trial_type": "html-keyboard-response",
		"trial_index": 192,
		"time_elapsed": 410769,
		"internal_node_id": "0.0-3.0-1.149"
	},
	{
		"rt": 7518,
		"stimulus": "<span style=\"font-size:30px; font-family: monospace\">A janela alta estava quebrada?</span>",
		"response": "s",
		"question": "A janela alta estava quebrada?",
		"answer": "sim",
		"trial": "comp",
		"trial_type": "html-keyboard-response",
		"trial_index": 193,
		"time_elapsed": 418540,
		"internal_node_id": "0.0-3.0-2.149-0.149",
		"accuracy": false
	},
	{
		"rt": null,
		"stimulus": "<span style= \"font-size:30px; font-family: monospace\">+</span>",
		"response": null,
		"trial_part": "fixation",
		"trial_type": "html-keyboard-response",
		"trial_index": 194,
		"time_elapsed": 420045,
		"internal_node_id": "0.0-3.0-0.150-0.150"
	},
	{
		"rt": 2622,
		"stimulus": "<span style=\"font-size:30px; font-family: monospace\">Preciso</span>",
		"response": " ",
		"trial": "exp-sent",
		"word": "Preciso",
		"trial_type": "html-keyboard-response",
		"trial_index": 195,
		"time_elapsed": 422921,
		"internal_node_id": "0.0-3.0-1.150"
	},
	{
		"rt": 1619,
		"stimulus": "<span style=\"font-size:30px; font-family: monospace\">de</span>",
		"response": " ",
		"trial": "exp-sent",
		"word": "de",
		"trial_type": "html-keyboard-response",
		"trial_index": 196,
		"time_elapsed": 424793,
		"internal_node_id": "0.0-3.0-1.151"
	},
	{
		"rt": 1196,
		"stimulus": "<span style=\"font-size:30px; font-family: monospace\">um</span>",
		"response": " ",
		"trial": "exp-sent",
		"word": "um",
		"trial_type": "html-keyboard-response",
		"trial_index": 197,
		"time_elapsed": 426241,
		"internal_node_id": "0.0-3.0-1.152"
	},
	{
		"rt": 960,
		"stimulus": "<span style=\"font-size:30px; font-family: monospace\">relatório</span>",
		"response": " ",
		"trial": "exp-sent",
		"word": "relatório",
		"trial_type": "html-keyboard-response",
		"trial_index": 198,
		"time_elapsed": 427456,
		"internal_node_id": "0.0-3.0-1.153"
	},
	{
		"rt": 1324,
		"stimulus": "<span style=\"font-size:30px; font-family: monospace\">oficial</span>",
		"response": " ",
		"trial": "exp-sent",
		"word": "oficial",
		"trial_type": "html-keyboard-response",
		"trial_index": 199,
		"time_elapsed": 429033,
		"internal_node_id": "0.0-3.0-1.154"
	},
	{
		"rt": 823,
		"stimulus": "<span style=\"font-size:30px; font-family: monospace\">para</span>",
		"response": " ",
		"trial": "exp-sent",
		"word": "para",
		"trial_type": "html-keyboard-response",
		"trial_index": 200,
		"time_elapsed": 430113,
		"internal_node_id": "0.0-3.0-1.155"
	},
	{
		"rt": 1058,
		"stimulus": "<span style=\"font-size:30px; font-family: monospace\">amanhã.</span>",
		"response": " ",
		"trial": "exp-sent",
		"word": "amanhã.",
		"trial_type": "html-keyboard-response",
		"trial_index": 201,
		"time_elapsed": 431425,
		"internal_node_id": "0.0-3.0-1.156"
	},
	{
		"rt": null,
		"stimulus": "<span style= \"font-size:30px; font-family: monospace\">+</span>",
		"response": null,
		"trial_part": "fixation",
		"trial_type": "html-keyboard-response",
		"trial_index": 202,
		"time_elapsed": 432678,
		"internal_node_id": "0.0-3.0-0.157-0.157"
	},
	{
		"rt": 207,
		"stimulus": "<span style=\"font-size:30px; font-family: monospace\">Ele</span>",
		"response": " ",
		"trial": "exp-sent",
		"word": "Ele",
		"trial_type": "html-keyboard-response",
		"trial_index": 203,
		"time_elapsed": 433138,
		"internal_node_id": "0.0-3.0-1.157"
	},
	{
		"rt": 763,
		"stimulus": "<span style=\"font-size:30px; font-family: monospace\">viu</span>",
		"response": " ",
		"trial": "exp-sent",
		"word": "viu",
		"trial_type": "html-keyboard-response",
		"trial_index": 204,
		"time_elapsed": 434154,
		"internal_node_id": "0.0-3.0-1.158"
	},
	{
		"rt": 1274,
		"stimulus": "<span style=\"font-size:30px; font-family: monospace\">um</span>",
		"response": " ",
		"trial": "exp-sent",
		"word": "um",
		"trial_type": "html-keyboard-response",
		"trial_index": 205,
		"time_elapsed": 435681,
		"internal_node_id": "0.0-3.0-1.159"
	},
	{
		"rt": 2922,
		"stimulus": "<span style=\"font-size:30px; font-family: monospace\">inseto</span>",
		"response": " ",
		"trial": "exp-sent",
		"word": "inseto",
		"trial_type": "html-keyboard-response",
		"trial_index": 206,
		"time_elapsed": 438857,
		"internal_node_id": "0.0-3.0-1.160"
	},
	{
		"rt": 796,
		"stimulus": "<span style=\"font-size:30px; font-family: monospace\">marrom</span>",
		"response": " ",
		"trial": "exp-sent",
		"word": "marrom",
		"trial_type": "html-keyboard-response",
		"trial_index": 207,
		"time_elapsed": 439905,
		"internal_node_id": "0.0-3.0-1.161"
	},
	{
		"rt": 1003,
		"stimulus": "<span style=\"font-size:30px; font-family: monospace\">na</span>",
		"response": " ",
		"trial": "exp-sent",
		"word": "na",
		"trial_type": "html-keyboard-response",
		"trial_index": 208,
		"time_elapsed": 441162,
		"internal_node_id": "0.0-3.0-1.162"
	},
	{
		"rt": 1908,
		"stimulus": "<span style=\"font-size:30px; font-family: monospace\">parede.</span>",
		"response": " ",
		"trial": "exp-sent",
		"word": "parede.",
		"trial_type": "html-keyboard-response",
		"trial_index": 209,
		"time_elapsed": 443322,
		"internal_node_id": "0.0-3.0-1.163"
	},
	{
		"rt": null,
		"stimulus": "<span style= \"font-size:30px; font-family: monospace\">+</span>",
		"response": null,
		"trial_part": "fixation",
		"trial_type": "html-keyboard-response",
		"trial_index": 210,
		"time_elapsed": 444577,
		"internal_node_id": "0.0-3.0-0.164-0.164"
	},
	{
		"rt": 726,
		"stimulus": "<span style=\"font-size:30px; font-family: monospace\">O</span>",
		"response": " ",
		"trial": "exp-sent",
		"word": "O",
		"trial_type": "html-keyboard-response",
		"trial_index": 211,
		"time_elapsed": 445557,
		"internal_node_id": "0.0-3.0-1.164"
	},
	{
		"rt": 759,
		"stimulus": "<span style=\"font-size:30px; font-family: monospace\">avô</span>",
		"response": " ",
		"trial": "exp-sent",
		"word": "avô",
		"trial_type": "html-keyboard-response",
		"trial_index": 212,
		"time_elapsed": 446569,
		"internal_node_id": "0.0-3.0-1.165"
	},
	{
		"rt": 752,
		"stimulus": "<span style=\"font-size:30px; font-family: monospace\">fez</span>",
		"response": " ",
		"trial": "exp-sent",
		"word": "fez",
		"trial_type": "html-keyboard-response",
		"trial_index": 213,
		"time_elapsed": 447577,
		"internal_node_id": "0.0-3.0-1.166"
	},
	{
		"rt": 960,
		"stimulus": "<span style=\"font-size:30px; font-family: monospace\">uma</span>",
		"response": " ",
		"trial": "exp-sent",
		"word": "uma",
		"trial_type": "html-keyboard-response",
		"trial_index": 214,
		"time_elapsed": 448793,
		"internal_node_id": "0.0-3.0-1.167"
	},
	{
		"rt": 1036,
		"stimulus": "<span style=\"font-size:30px; font-family: monospace\">lista</span>",
		"response": " ",
		"trial": "exp-sent",
		"word": "lista",
		"trial_type": "html-keyboard-response",
		"trial_index": 215,
		"time_elapsed": 450082,
		"internal_node_id": "0.0-3.0-1.168"
	},
	{
		"rt": 764,
		"stimulus": "<span style=\"font-size:30px; font-family: monospace\">de</span>",
		"response": " ",
		"trial": "exp-sent",
		"word": "de",
		"trial_type": "html-keyboard-response",
		"trial_index": 216,
		"time_elapsed": 451098,
		"internal_node_id": "0.0-3.0-1.169"
	},
	{
		"rt": 708,
		"stimulus": "<span style=\"font-size:30px; font-family: monospace\">compras</span>",
		"response": " ",
		"trial": "exp-sent",
		"word": "compras",
		"trial_type": "html-keyboard-response",
		"trial_index": 217,
		"time_elapsed": 452058,
		"internal_node_id": "0.0-3.0-1.170"
	},
	{
		"rt": 626,
		"stimulus": "<span style=\"font-size:30px; font-family: monospace\">do</span>",
		"response": " ",
		"trial": "exp-sent",
		"word": "do",
		"trial_type": "html-keyboard-response",
		"trial_index": 218,
		"time_elapsed": 452937,
		"internal_node_id": "0.0-3.0-1.171"
	},
	{
		"rt": 3065,
		"stimulus": "<span style=\"font-size:30px; font-family: monospace\">mercado.</span>",
		"response": " ",
		"trial": "exp-sent",
		"word": "mercado.",
		"trial_type": "html-keyboard-response",
		"trial_index": 219,
		"time_elapsed": 456258,
		"internal_node_id": "0.0-3.0-1.172"
	},
	{
		"rt": null,
		"stimulus": "<span style= \"font-size:30px; font-family: monospace\">+</span>",
		"response": null,
		"trial_part": "fixation",
		"trial_type": "html-keyboard-response",
		"trial_index": 220,
		"time_elapsed": 457513,
		"internal_node_id": "0.0-3.0-0.173-0.173"
	},
	{
		"rt": 658,
		"stimulus": "<span style=\"font-size:30px; font-family: monospace\">As</span>",
		"response": " ",
		"trial": "exp-sent",
		"word": "As",
		"trial_type": "html-keyboard-response",
		"trial_index": 221,
		"time_elapsed": 458426,
		"internal_node_id": "0.0-3.0-1.173"
	},
	{
		"rt": 738,
		"stimulus": "<span style=\"font-size:30px; font-family: monospace\">pessoas</span>",
		"response": " ",
		"trial": "exp-sent",
		"word": "pessoas",
		"trial_type": "html-keyboard-response",
		"trial_index": 222,
		"time_elapsed": 459417,
		"internal_node_id": "0.0-3.0-1.174"
	},
	{
		"rt": 743,
		"stimulus": "<span style=\"font-size:30px; font-family: monospace\">não</span>",
		"response": " ",
		"trial": "exp-sent",
		"word": "não",
		"trial_type": "html-keyboard-response",
		"trial_index": 223,
		"time_elapsed": 460427,
		"internal_node_id": "0.0-3.0-1.175"
	},
	{
		"rt": 1089,
		"stimulus": "<span style=\"font-size:30px; font-family: monospace\">enviam</span>",
		"response": " ",
		"trial": "exp-sent",
		"word": "enviam",
		"trial_type": "html-keyboard-response",
		"trial_index": 224,
		"time_elapsed": 461770,
		"internal_node_id": "0.0-3.0-1.176"
	},
	{
		"rt": 1634,
		"stimulus": "<span style=\"font-size:30px; font-family: monospace\">telegrama</span>",
		"response": " ",
		"trial": "exp-sent",
		"word": "telegrama",
		"trial_type": "html-keyboard-response",
		"trial_index": 225,
		"time_elapsed": 463657,
		"internal_node_id": "0.0-3.0-1.177"
	},
	{
		"rt": 651,
		"stimulus": "<span style=\"font-size:30px; font-family: monospace\">nos</span>",
		"response": " ",
		"trial": "exp-sent",
		"word": "nos",
		"trial_type": "html-keyboard-response",
		"trial_index": 226,
		"time_elapsed": 464562,
		"internal_node_id": "0.0-3.0-1.178"
	},
	{
		"rt": 731,
		"stimulus": "<span style=\"font-size:30px; font-family: monospace\">dias</span>",
		"response": " ",
		"trial": "exp-sent",
		"word": "dias",
		"trial_type": "html-keyboard-response",
		"trial_index": 227,
		"time_elapsed": 465545,
		"internal_node_id": "0.0-3.0-1.179"
	},
	{
		"rt": 624,
		"stimulus": "<span style=\"font-size:30px; font-family: monospace\">de</span>",
		"response": " ",
		"trial": "exp-sent",
		"word": "de",
		"trial_type": "html-keyboard-response",
		"trial_index": 228,
		"time_elapsed": 466426,
		"internal_node_id": "0.0-3.0-1.180"
	},
	{
		"rt": 2235,
		"stimulus": "<span style=\"font-size:30px; font-family: monospace\">hoje.</span>",
		"response": " ",
		"trial": "exp-sent",
		"word": "hoje.",
		"trial_type": "html-keyboard-response",
		"trial_index": 229,
		"time_elapsed": 468914,
		"internal_node_id": "0.0-3.0-1.181"
	},
	{
		"rt": null,
		"stimulus": "<span style= \"font-size:30px; font-family: monospace\">+</span>",
		"response": null,
		"trial_part": "fixation",
		"trial_type": "html-keyboard-response",
		"trial_index": 230,
		"time_elapsed": 470167,
		"internal_node_id": "0.0-3.0-0.182-0.182"
	},
	{
		"rt": 639,
		"stimulus": "<span style=\"font-size:30px; font-family: monospace\">Ele</span>",
		"response": " ",
		"trial": "exp-sent",
		"word": "Ele",
		"trial_type": "html-keyboard-response",
		"trial_index": 231,
		"time_elapsed": 471059,
		"internal_node_id": "0.0-3.0-1.182"
	},
	{
		"rt": 763,
		"stimulus": "<span style=\"font-size:30px; font-family: monospace\">não</span>",
		"response": " ",
		"trial": "exp-sent",
		"word": "não",
		"trial_type": "html-keyboard-response",
		"trial_index": 232,
		"time_elapsed": 472074,
		"internal_node_id": "0.0-3.0-1.183"
	},
	{
		"rt": 783,
		"stimulus": "<span style=\"font-size:30px; font-family: monospace\">gosta</span>",
		"response": " ",
		"trial": "exp-sent",
		"word": "gosta",
		"trial_type": "html-keyboard-response",
		"trial_index": 233,
		"time_elapsed": 473122,
		"internal_node_id": "0.0-3.0-1.184"
	},
	{
		"rt": 834,
		"stimulus": "<span style=\"font-size:30px; font-family: monospace\">de</span>",
		"response": " ",
		"trial": "exp-sent",
		"word": "de",
		"trial_type": "html-keyboard-response",
		"trial_index": 234,
		"time_elapsed": 474210,
		"internal_node_id": "0.0-3.0-1.185"
	},
	{
		"rt": 755,
		"stimulus": "<span style=\"font-size:30px; font-family: monospace\">tomate</span>",
		"response": " ",
		"trial": "exp-sent",
		"word": "tomate",
		"trial_type": "html-keyboard-response",
		"trial_index": 235,
		"time_elapsed": 475218,
		"internal_node_id": "0.0-3.0-1.186"
	},
	{
		"rt": 826,
		"stimulus": "<span style=\"font-size:30px; font-family: monospace\">misturado</span>",
		"response": " ",
		"trial": "exp-sent",
		"word": "misturado",
		"trial_type": "html-keyboard-response",
		"trial_index": 236,
		"time_elapsed": 476298,
		"internal_node_id": "0.0-3.0-1.187"
	},
	{
		"rt": 714,
		"stimulus": "<span style=\"font-size:30px; font-family: monospace\">na</span>",
		"response": " ",
		"trial": "exp-sent",
		"word": "na",
		"trial_type": "html-keyboard-response",
		"trial_index": 237,
		"time_elapsed": 477266,
		"internal_node_id": "0.0-3.0-1.188"
	},
	{
		"rt": 867,
		"stimulus": "<span style=\"font-size:30px; font-family: monospace\">comida.</span>",
		"response": " ",
		"trial": "comp",
		"word": "comida.",
		"trial_type": "html-keyboard-response",
		"trial_index": 238,
		"time_elapsed": 478386,
		"internal_node_id": "0.0-3.0-1.189"
	},
	{
		"rt": 5922,
		"stimulus": "<span style=\"font-size:30px; font-family: monospace\">Ele gosta de tomate na comida?</span>",
		"response": "n",
		"question": "Ele gosta de tomate na comida?",
		"answer": "não",
		"trial": "comp",
		"trial_type": "html-keyboard-response",
		"trial_index": 239,
		"time_elapsed": 484563,
		"internal_node_id": "0.0-3.0-2.189-0.189",
		"accuracy": false
	},
	{
		"rt": null,
		"stimulus": "<span style= \"font-size:30px; font-family: monospace\">+</span>",
		"response": null,
		"trial_part": "fixation",
		"trial_type": "html-keyboard-response",
		"trial_index": 240,
		"time_elapsed": 486073,
		"internal_node_id": "0.0-3.0-0.190-0.190"
	},
	{
		"rt": 42914,
		"stimulus": "<span style=\"font-size:30px; font-family: monospace\">Este</span>",
		"response": " ",
		"trial": "exp-sent",
		"word": "Este",
		"trial_type": "html-keyboard-response",
		"trial_index": 241,
		"time_elapsed": 529242,
		"internal_node_id": "0.0-3.0-1.190"
	},
	{
		"rt": 3546,
		"stimulus": "<span style=\"font-size:30px; font-family: monospace\">conto</span>",
		"response": " ",
		"trial": "exp-sent",
		"word": "conto",
		"trial_type": "html-keyboard-response",
		"trial_index": 242,
		"time_elapsed": 533042,
		"internal_node_id": "0.0-3.0-1.191"
	},
	{
		"rt": 720,
		"stimulus": "<span style=\"font-size:30px; font-family: monospace\">tem</span>",
		"response": " ",
		"trial": "exp-sent",
		"word": "tem",
		"trial_type": "html-keyboard-response",
		"trial_index": 243,
		"time_elapsed": 534016,
		"internal_node_id": "0.0-3.0-1.192"
	},
	{
		"rt": 1372,
		"stimulus": "<span style=\"font-size:30px; font-family: monospace\">um</span>",
		"response": " ",
		"trial": "exp-sent",
		"word": "um",
		"trial_type": "html-keyboard-response",
		"trial_index": 244,
		"time_elapsed": 535644,
		"internal_node_id": "0.0-3.0-1.193"
	},
	{
		"rt": 1676,
		"stimulus": "<span style=\"font-size:30px; font-family: monospace\">final</span>",
		"response": " ",
		"trial": "exp-sent",
		"word": "final",
		"trial_type": "html-keyboard-response",
		"trial_index": 245,
		"time_elapsed": 537588,
		"internal_node_id": "0.0-3.0-1.194"
	},
	{
		"rt": 1010,
		"stimulus": "<span style=\"font-size:30px; font-family: monospace\">perfeito.</span>",
		"response": " ",
		"trial": "exp-sent",
		"word": "perfeito.",
		"trial_type": "html-keyboard-response",
		"trial_index": 246,
		"time_elapsed": 538851,
		"internal_node_id": "0.0-3.0-1.195"
	},
	{
		"rt": null,
		"stimulus": "<span style= \"font-size:30px; font-family: monospace\">+</span>",
		"response": null,
		"trial_part": "fixation",
		"trial_type": "html-keyboard-response",
		"trial_index": 247,
		"time_elapsed": 540118,
		"internal_node_id": "0.0-3.0-0.196-0.196"
	},
	{
		"rt": 2297,
		"stimulus": "<span style=\"font-size:30px; font-family: monospace\">Ele</span>",
		"response": " ",
		"trial": "exp-sent",
		"word": "Ele",
		"trial_type": "html-keyboard-response",
		"trial_index": 248,
		"time_elapsed": 542668,
		"internal_node_id": "0.0-3.0-1.196"
	},
	{
		"rt": 773,
		"stimulus": "<span style=\"font-size:30px; font-family: monospace\">precisa</span>",
		"response": " ",
		"trial": "exp-sent",
		"word": "precisa",
		"trial_type": "html-keyboard-response",
		"trial_index": 249,
		"time_elapsed": 543693,
		"internal_node_id": "0.0-3.0-1.197"
	},
	{
		"rt": 795,
		"stimulus": "<span style=\"font-size:30px; font-family: monospace\">de</span>",
		"response": " ",
		"trial": "exp-sent",
		"word": "de",
		"trial_type": "html-keyboard-response",
		"trial_index": 250,
		"time_elapsed": 544742,
		"internal_node_id": "0.0-3.0-1.198"
	},
	{
		"rt": 865,
		"stimulus": "<span style=\"font-size:30px; font-family: monospace\">um</span>",
		"response": " ",
		"trial": "exp-sent",
		"word": "um",
		"trial_type": "html-keyboard-response",
		"trial_index": 251,
		"time_elapsed": 545861,
		"internal_node_id": "0.0-3.0-1.199"
	},
	{
		"rt": 1570,
		"stimulus": "<span style=\"font-size:30px; font-family: monospace\">protetor</span>",
		"response": " ",
		"trial": "exp-sent",
		"word": "protetor",
		"trial_type": "html-keyboard-response",
		"trial_index": 252,
		"time_elapsed": 547684,
		"internal_node_id": "0.0-3.0-1.200"
	},
	{
		"rt": 815,
		"stimulus": "<span style=\"font-size:30px; font-family: monospace\">de</span>",
		"response": " ",
		"trial": "exp-sent",
		"word": "de",
		"trial_type": "html-keyboard-response",
		"trial_index": 253,
		"time_elapsed": 548753,
		"internal_node_id": "0.0-3.0-1.201"
	},
	{
		"rt": 1741,
		"stimulus": "<span style=\"font-size:30px; font-family: monospace\">ouvido.</span>",
		"response": " ",
		"trial": "exp-sent",
		"word": "ouvido.",
		"trial_type": "html-keyboard-response",
		"trial_index": 254,
		"time_elapsed": 550748,
		"internal_node_id": "0.0-3.0-1.202"
	},
	{
		"rt": null,
		"stimulus": "<span style= \"font-size:30px; font-family: monospace\">+</span>",
		"response": null,
		"trial_part": "fixation",
		"trial_type": "html-keyboard-response",
		"trial_index": 255,
		"time_elapsed": 552003,
		"internal_node_id": "0.0-3.0-0.203-0.203"
	},
	{
		"rt": 5455,
		"stimulus": "<span style=\"font-size:30px; font-family: monospace\">Os</span>",
		"response": " ",
		"trial": "exp-sent",
		"word": "Os",
		"trial_type": "html-keyboard-response",
		"trial_index": 256,
		"time_elapsed": 557723,
		"internal_node_id": "0.0-3.0-1.203"
	},
	{
		"rt": 864,
		"stimulus": "<span style=\"font-size:30px; font-family: monospace\">hábitos</span>",
		"response": " ",
		"trial": "exp-sent",
		"word": "hábitos",
		"trial_type": "html-keyboard-response",
		"trial_index": 257,
		"time_elapsed": 558842,
		"internal_node_id": "0.0-3.0-1.204"
	},
	{
		"rt": 709,
		"stimulus": "<span style=\"font-size:30px; font-family: monospace\">de</span>",
		"response": " ",
		"trial": "exp-sent",
		"word": "de",
		"trial_type": "html-keyboard-response",
		"trial_index": 258,
		"time_elapsed": 559805,
		"internal_node_id": "0.0-3.0-1.205"
	},
	{
		"rt": 1062,
		"stimulus": "<span style=\"font-size:30px; font-family: monospace\">lugares</span>",
		"response": " ",
		"trial": "exp-sent",
		"word": "lugares",
		"trial_type": "html-keyboard-response",
		"trial_index": 259,
		"time_elapsed": 561121,
		"internal_node_id": "0.0-3.0-1.206"
	},
	{
		"rt": 925,
		"stimulus": "<span style=\"font-size:30px; font-family: monospace\">diferentes</span>",
		"response": " ",
		"trial": "exp-sent",
		"word": "diferentes",
		"trial_type": "html-keyboard-response",
		"trial_index": 260,
		"time_elapsed": 562298,
		"internal_node_id": "0.0-3.0-1.207"
	},
	{
		"rt": 728,
		"stimulus": "<span style=\"font-size:30px; font-family: monospace\">são</span>",
		"response": " ",
		"trial": "exp-sent",
		"word": "são",
		"trial_type": "html-keyboard-response",
		"trial_index": 261,
		"time_elapsed": 563280,
		"internal_node_id": "0.0-3.0-1.208"
	},
	{
		"rt": 748,
		"stimulus": "<span style=\"font-size:30px; font-family: monospace\">muito</span>",
		"response": " ",
		"trial": "exp-sent",
		"word": "muito",
		"trial_type": "html-keyboard-response",
		"trial_index": 262,
		"time_elapsed": 564282,
		"internal_node_id": "0.0-3.0-1.209"
	},
	{
		"rt": 1903,
		"stimulus": "<span style=\"font-size:30px; font-family: monospace\">lindos.</span>",
		"response": " ",
		"trial": "exp-sent",
		"word": "lindos.",
		"trial_type": "html-keyboard-response",
		"trial_index": 263,
		"time_elapsed": 566437,
		"internal_node_id": "0.0-3.0-1.210"
	},
	{
		"rt": null,
		"stimulus": "<span style= \"font-size:30px; font-family: monospace\">+</span>",
		"response": null,
		"trial_part": "fixation",
		"trial_type": "html-keyboard-response",
		"trial_index": 264,
		"time_elapsed": 567698,
		"internal_node_id": "0.0-3.0-0.211-0.211"
	},
	{
		"rt": 521,
		"stimulus": "<span style=\"font-size:30px; font-family: monospace\">O</span>",
		"response": " ",
		"trial": "exp-sent",
		"word": "O",
		"trial_type": "html-keyboard-response",
		"trial_index": 265,
		"time_elapsed": 568475,
		"internal_node_id": "0.0-3.0-1.211"
	},
	{
		"rt": 634,
		"stimulus": "<span style=\"font-size:30px; font-family: monospace\">médico</span>",
		"response": " ",
		"trial": "exp-sent",
		"word": "médico",
		"trial_type": "html-keyboard-response",
		"trial_index": 266,
		"time_elapsed": 569368,
		"internal_node_id": "0.0-3.0-1.212"
	},
	{
		"rt": 1158,
		"stimulus": "<span style=\"font-size:30px; font-family: monospace\">corrigiu</span>",
		"response": " ",
		"trial": "exp-sent",
		"word": "corrigiu",
		"trial_type": "html-keyboard-response",
		"trial_index": 267,
		"time_elapsed": 570780,
		"internal_node_id": "0.0-3.0-1.213"
	},
	{
		"rt": 841,
		"stimulus": "<span style=\"font-size:30px; font-family: monospace\">a</span>",
		"response": " ",
		"trial": "exp-sent",
		"word": "a",
		"trial_type": "html-keyboard-response",
		"trial_index": 268,
		"time_elapsed": 571876,
		"internal_node_id": "0.0-3.0-1.214"
	},
	{
		"rt": 802,
		"stimulus": "<span style=\"font-size:30px; font-family: monospace\">postura</span>",
		"response": " ",
		"trial": "exp-sent",
		"word": "postura",
		"trial_type": "html-keyboard-response",
		"trial_index": 269,
		"time_elapsed": 572939,
		"internal_node_id": "0.0-3.0-1.215"
	},
	{
		"rt": 879,
		"stimulus": "<span style=\"font-size:30px; font-family: monospace\">das</span>",
		"response": " ",
		"trial": "exp-sent",
		"word": "das",
		"trial_type": "html-keyboard-response",
		"trial_index": 270,
		"time_elapsed": 574077,
		"internal_node_id": "0.0-3.0-1.216"
	},
	{
		"rt": 743,
		"stimulus": "<span style=\"font-size:30px; font-family: monospace\">costas</span>",
		"response": " ",
		"trial": "exp-sent",
		"word": "costas",
		"trial_type": "html-keyboard-response",
		"trial_index": 271,
		"time_elapsed": 575075,
		"internal_node_id": "0.0-3.0-1.217"
	},
	{
		"rt": 766,
		"stimulus": "<span style=\"font-size:30px; font-family: monospace\">da</span>",
		"response": " ",
		"trial": "exp-sent",
		"word": "da",
		"trial_type": "html-keyboard-response",
		"trial_index": 272,
		"time_elapsed": 576096,
		"internal_node_id": "0.0-3.0-1.218"
	},
	{
		"rt": 755,
		"stimulus": "<span style=\"font-size:30px; font-family: monospace\">pessoa.</span>",
		"response": " ",
		"trial": "exp-sent",
		"word": "pessoa.",
		"trial_type": "html-keyboard-response",
		"trial_index": 273,
		"time_elapsed": 577106,
		"internal_node_id": "0.0-3.0-1.219"
	},
	{
		"rt": null,
		"stimulus": "<span style= \"font-size:30px; font-family: monospace\">+</span>",
		"response": null,
		"trial_part": "fixation",
		"trial_type": "html-keyboard-response",
		"trial_index": 274,
		"time_elapsed": 578361,
		"internal_node_id": "0.0-3.0-0.220-0.220"
	},
	{
		"rt": 759,
		"stimulus": "<span style=\"font-size:30px; font-family: monospace\">Aquele</span>",
		"response": " ",
		"trial": "exp-sent",
		"word": "Aquele",
		"trial_type": "html-keyboard-response",
		"trial_index": 275,
		"time_elapsed": 579378,
		"internal_node_id": "0.0-3.0-1.220"
	},
	{
		"rt": 779,
		"stimulus": "<span style=\"font-size:30px; font-family: monospace\">era</span>",
		"response": " ",
		"trial": "exp-sent",
		"word": "era",
		"trial_type": "html-keyboard-response",
		"trial_index": 276,
		"time_elapsed": 580417,
		"internal_node_id": "0.0-3.0-1.221"
	},
	{
		"rt": 473,
		"stimulus": "<span style=\"font-size:30px; font-family: monospace\">um</span>",
		"response": " ",
		"trial": "exp-sent",
		"word": "um",
		"trial_type": "html-keyboard-response",
		"trial_index": 277,
		"time_elapsed": 581144,
		"internal_node_id": "0.0-3.0-1.222"
	},
	{
		"rt": 526,
		"stimulus": "<span style=\"font-size:30px; font-family: monospace\">caso</span>",
		"response": " ",
		"trial": "exp-sent",
		"word": "caso",
		"trial_type": "html-keyboard-response",
		"trial_index": 278,
		"time_elapsed": 581932,
		"internal_node_id": "0.0-3.0-1.223"
	},
	{
		"rt": 526,
		"stimulus": "<span style=\"font-size:30px; font-family: monospace\">real</span>",
		"response": " ",
		"trial": "exp-sent",
		"word": "real",
		"trial_type": "html-keyboard-response",
		"trial_index": 279,
		"time_elapsed": 582716,
		"internal_node_id": "0.0-3.0-1.224"
	},
	{
		"rt": 538,
		"stimulus": "<span style=\"font-size:30px; font-family: monospace\">de</span>",
		"response": " ",
		"trial": "exp-sent",
		"word": "de",
		"trial_type": "html-keyboard-response",
		"trial_index": 280,
		"time_elapsed": 583510,
		"internal_node_id": "0.0-3.0-1.225"
	},
	{
		"rt": 612,
		"stimulus": "<span style=\"font-size:30px; font-family: monospace\">sequestro</span>",
		"response": " ",
		"trial": "exp-sent",
		"word": "sequestro",
		"trial_type": "html-keyboard-response",
		"trial_index": 281,
		"time_elapsed": 584380,
		"internal_node_id": "0.0-3.0-1.226"
	},
	{
		"rt": 783,
		"stimulus": "<span style=\"font-size:30px; font-family: monospace\">premeditado.</span>",
		"response": " ",
		"trial": "comp",
		"word": "premeditado.",
		"trial_type": "html-keyboard-response",
		"trial_index": 282,
		"time_elapsed": 585418,
		"internal_node_id": "0.0-3.0-1.227"
	},
	{
		"rt": 8104,
		"stimulus": "<span style=\"font-size:30px; font-family: monospace\">Aquele era um caso real de roubo?</span>",
		"response": "n",
		"question": "Aquele era um caso real de roubo?",
		"answer": "não",
		"trial": "comp",
		"trial_type": "html-keyboard-response",
		"trial_index": 283,
		"time_elapsed": 593812,
		"internal_node_id": "0.0-3.0-2.227-0.227",
		"accuracy": false
	},
	{
		"rt": null,
		"stimulus": "<span style= \"font-size:30px; font-family: monospace\">+</span>",
		"response": null,
		"trial_part": "fixation",
		"trial_type": "html-keyboard-response",
		"trial_index": 284,
		"time_elapsed": 595325,
		"internal_node_id": "0.0-3.0-0.228-0.228"
	},
	{
		"rt": 2162,
		"stimulus": "<span style=\"font-size:30px; font-family: monospace\">Ganhamos</span>",
		"response": " ",
		"trial": "exp-sent",
		"word": "Ganhamos",
		"trial_type": "html-keyboard-response",
		"trial_index": 285,
		"time_elapsed": 597742,
		"internal_node_id": "0.0-3.0-1.228"
	},
	{
		"rt": 727,
		"stimulus": "<span style=\"font-size:30px; font-family: monospace\">passagem</span>",
		"response": " ",
		"trial": "exp-sent",
		"word": "passagem",
		"trial_type": "html-keyboard-response",
		"trial_index": 286,
		"time_elapsed": 598724,
		"internal_node_id": "0.0-3.0-1.229"
	},
	{
		"rt": 588,
		"stimulus": "<span style=\"font-size:30px; font-family: monospace\">para</span>",
		"response": " ",
		"trial": "exp-sent",
		"word": "para",
		"trial_type": "html-keyboard-response",
		"trial_index": 287,
		"time_elapsed": 599566,
		"internal_node_id": "0.0-3.0-1.230"
	},
	{
		"rt": 522,
		"stimulus": "<span style=\"font-size:30px; font-family: monospace\">uma</span>",
		"response": " ",
		"trial": "exp-sent",
		"word": "uma",
		"trial_type": "html-keyboard-response",
		"trial_index": 288,
		"time_elapsed": 600343,
		"internal_node_id": "0.0-3.0-1.231"
	},
	{
		"rt": 496,
		"stimulus": "<span style=\"font-size:30px; font-family: monospace\">viagem</span>",
		"response": " ",
		"trial": "exp-sent",
		"word": "viagem",
		"trial_type": "html-keyboard-response",
		"trial_index": 289,
		"time_elapsed": 601092,
		"internal_node_id": "0.0-3.0-1.232"
	},
	{
		"rt": 482,
		"stimulus": "<span style=\"font-size:30px; font-family: monospace\">de</span>",
		"response": " ",
		"trial": "exp-sent",
		"word": "de",
		"trial_type": "html-keyboard-response",
		"trial_index": 290,
		"time_elapsed": 601829,
		"internal_node_id": "0.0-3.0-1.233"
	},
	{
		"rt": 491,
		"stimulus": "<span style=\"font-size:30px; font-family: monospace\">férias.</span>",
		"response": " ",
		"trial": "exp-sent",
		"word": "férias.",
		"trial_type": "html-keyboard-response",
		"trial_index": 291,
		"time_elapsed": 602573,
		"internal_node_id": "0.0-3.0-1.234"
	},
	{
		"rt": null,
		"stimulus": "<span style= \"font-size:30px; font-family: monospace\">+</span>",
		"response": null,
		"trial_part": "fixation",
		"trial_type": "html-keyboard-response",
		"trial_index": 292,
		"time_elapsed": 603826,
		"internal_node_id": "0.0-3.0-0.235-0.235"
	},
	{
		"rt": 818,
		"stimulus": "<span style=\"font-size:30px; font-family: monospace\">Caiu</span>",
		"response": " ",
		"trial": "exp-sent",
		"word": "Caiu",
		"trial_type": "html-keyboard-response",
		"trial_index": 293,
		"time_elapsed": 604904,
		"internal_node_id": "0.0-3.0-1.235"
	},
	{
		"rt": 580,
		"stimulus": "<span style=\"font-size:30px; font-family: monospace\">algo</span>",
		"response": " ",
		"trial": "exp-sent",
		"word": "algo",
		"trial_type": "html-keyboard-response",
		"trial_index": 294,
		"time_elapsed": 605738,
		"internal_node_id": "0.0-3.0-1.236"
	},
	{
		"rt": 522,
		"stimulus": "<span style=\"font-size:30px; font-family: monospace\">no</span>",
		"response": " ",
		"trial": "exp-sent",
		"word": "no",
		"trial_type": "html-keyboard-response",
		"trial_index": 295,
		"time_elapsed": 606515,
		"internal_node_id": "0.0-3.0-1.237"
	},
	{
		"rt": 457,
		"stimulus": "<span style=\"font-size:30px; font-family: monospace\">meu</span>",
		"response": " ",
		"trial": "exp-sent",
		"word": "meu",
		"trial_type": "html-keyboard-response",
		"trial_index": 296,
		"time_elapsed": 607226,
		"internal_node_id": "0.0-3.0-1.238"
	},
	{
		"rt": 463,
		"stimulus": "<span style=\"font-size:30px; font-family: monospace\">olho</span>",
		"response": " ",
		"trial": "exp-sent",
		"word": "olho",
		"trial_type": "html-keyboard-response",
		"trial_index": 297,
		"time_elapsed": 607950,
		"internal_node_id": "0.0-3.0-1.239"
	},
	{
		"rt": 531,
		"stimulus": "<span style=\"font-size:30px; font-family: monospace\">ontem</span>",
		"response": " ",
		"trial": "exp-sent",
		"word": "ontem",
		"trial_type": "html-keyboard-response",
		"trial_index": 298,
		"time_elapsed": 608738,
		"internal_node_id": "0.0-3.0-1.240"
	},
	{
		"rt": 592,
		"stimulus": "<span style=\"font-size:30px; font-family: monospace\">de</span>",
		"response": " ",
		"trial": "exp-sent",
		"word": "de",
		"trial_type": "html-keyboard-response",
		"trial_index": 299,
		"time_elapsed": 609584,
		"internal_node_id": "0.0-3.0-1.241"
	},
	{
		"rt": 599,
		"stimulus": "<span style=\"font-size:30px; font-family: monospace\">tarde.</span>",
		"response": " ",
		"trial": "exp-sent",
		"word": "tarde.",
		"trial_type": "html-keyboard-response",
		"trial_index": 300,
		"time_elapsed": 610452,
		"internal_node_id": "0.0-3.0-1.242"
	},
	{
		"rt": null,
		"stimulus": "<span style= \"font-size:30px; font-family: monospace\">+</span>",
		"response": null,
		"trial_part": "fixation",
		"trial_type": "html-keyboard-response",
		"trial_index": 301,
		"time_elapsed": 611713,
		"internal_node_id": "0.0-3.0-0.243-0.243"
	},
	{
		"rt": 731,
		"stimulus": "<span style=\"font-size:30px; font-family: monospace\">Não</span>",
		"response": " ",
		"trial": "exp-sent",
		"word": "Não",
		"trial_type": "html-keyboard-response",
		"trial_index": 302,
		"time_elapsed": 612699,
		"internal_node_id": "0.0-3.0-1.243"
	},
	{
		"rt": 691,
		"stimulus": "<span style=\"font-size:30px; font-family: monospace\">havia</span>",
		"response": " ",
		"trial": "exp-sent",
		"word": "havia",
		"trial_type": "html-keyboard-response",
		"trial_index": 303,
		"time_elapsed": 613646,
		"internal_node_id": "0.0-3.0-1.244"
	},
	{
		"rt": 616,
		"stimulus": "<span style=\"font-size:30px; font-family: monospace\">mais</span>",
		"response": " ",
		"trial": "exp-sent",
		"word": "mais",
		"trial_type": "html-keyboard-response",
		"trial_index": 304,
		"time_elapsed": 614524,
		"internal_node_id": "0.0-3.0-1.245"
	},
	{
		"rt": 515,
		"stimulus": "<span style=\"font-size:30px; font-family: monospace\">nenhum</span>",
		"response": " ",
		"trial": "exp-sent",
		"word": "nenhum",
		"trial_type": "html-keyboard-response",
		"trial_index": 305,
		"time_elapsed": 615294,
		"internal_node_id": "0.0-3.0-1.246"
	},
	{
		"rt": 565,
		"stimulus": "<span style=\"font-size:30px; font-family: monospace\">ingresso</span>",
		"response": " ",
		"trial": "exp-sent",
		"word": "ingresso",
		"trial_type": "html-keyboard-response",
		"trial_index": 306,
		"time_elapsed": 616114,
		"internal_node_id": "0.0-3.0-1.247"
	},
	{
		"rt": 577,
		"stimulus": "<span style=\"font-size:30px; font-family: monospace\">para</span>",
		"response": " ",
		"trial": "exp-sent",
		"word": "para",
		"trial_type": "html-keyboard-response",
		"trial_index": 307,
		"time_elapsed": 616946,
		"internal_node_id": "0.0-3.0-1.248"
	},
	{
		"rt": 674,
		"stimulus": "<span style=\"font-size:30px; font-family: monospace\">o</span>",
		"response": " ",
		"trial": "exp-sent",
		"word": "o",
		"trial_type": "html-keyboard-response",
		"trial_index": 308,
		"time_elapsed": 617876,
		"internal_node_id": "0.0-3.0-1.249"
	},
	{
		"rt": 595,
		"stimulus": "<span style=\"font-size:30px; font-family: monospace\">evento.</span>",
		"response": " ",
		"trial": "exp-sent",
		"word": "evento.",
		"trial_type": "html-keyboard-response",
		"trial_index": 309,
		"time_elapsed": 618725,
		"internal_node_id": "0.0-3.0-1.250"
	},
	{
		"rt": null,
		"stimulus": "<span style= \"font-size:30px; font-family: monospace\">+</span>",
		"response": null,
		"trial_part": "fixation",
		"trial_type": "html-keyboard-response",
		"trial_index": 310,
		"time_elapsed": 619980,
		"internal_node_id": "0.0-3.0-0.251-0.251"
	},
	{
		"rt": 685,
		"stimulus": "<span style=\"font-size:30px; font-family: monospace\">A</span>",
		"response": " ",
		"trial": "exp-sent",
		"word": "A",
		"trial_type": "html-keyboard-response",
		"trial_index": 311,
		"time_elapsed": 620926,
		"internal_node_id": "0.0-3.0-1.251"
	},
	{
		"rt": 607,
		"stimulus": "<span style=\"font-size:30px; font-family: monospace\">médica</span>",
		"response": " ",
		"trial": "exp-sent",
		"word": "médica",
		"trial_type": "html-keyboard-response",
		"trial_index": 312,
		"time_elapsed": 621787,
		"internal_node_id": "0.0-3.0-1.252"
	},
	{
		"rt": 984,
		"stimulus": "<span style=\"font-size:30px; font-family: monospace\">descobriu</span>",
		"response": " ",
		"trial": "exp-sent",
		"word": "descobriu",
		"trial_type": "html-keyboard-response",
		"trial_index": 313,
		"time_elapsed": 623026,
		"internal_node_id": "0.0-3.0-1.253"
	},
	{
		"rt": 739,
		"stimulus": "<span style=\"font-size:30px; font-family: monospace\">uma</span>",
		"response": " ",
		"trial": "exp-sent",
		"word": "uma",
		"trial_type": "html-keyboard-response",
		"trial_index": 314,
		"time_elapsed": 624021,
		"internal_node_id": "0.0-3.0-1.254"
	},
	{
		"rt": 900,
		"stimulus": "<span style=\"font-size:30px; font-family: monospace\">cura</span>",
		"response": " ",
		"trial": "exp-sent",
		"word": "cura",
		"trial_type": "html-keyboard-response",
		"trial_index": 315,
		"time_elapsed": 625179,
		"internal_node_id": "0.0-3.0-1.255"
	},
	{
		"rt": 776,
		"stimulus": "<span style=\"font-size:30px; font-family: monospace\">para</span>",
		"response": " ",
		"trial": "exp-sent",
		"word": "para",
		"trial_type": "html-keyboard-response",
		"trial_index": 316,
		"time_elapsed": 626212,
		"internal_node_id": "0.0-3.0-1.256"
	},
	{
		"rt": 759,
		"stimulus": "<span style=\"font-size:30px; font-family: monospace\">a</span>",
		"response": " ",
		"trial": "exp-sent",
		"word": "a",
		"trial_type": "html-keyboard-response",
		"trial_index": 317,
		"time_elapsed": 627227,
		"internal_node_id": "0.0-3.0-1.257"
	},
	{
		"rt": 1802,
		"stimulus": "<span style=\"font-size:30px; font-family: monospace\">doença.</span>",
		"response": " ",
		"trial": "exp-sent",
		"word": "doença.",
		"trial_type": "html-keyboard-response",
		"trial_index": 318,
		"time_elapsed": 629284,
		"internal_node_id": "0.0-3.0-1.258"
	},
	{
		"rt": null,
		"stimulus": "<span style= \"font-size:30px; font-family: monospace\">+</span>",
		"response": null,
		"trial_part": "fixation",
		"trial_type": "html-keyboard-response",
		"trial_index": 319,
		"time_elapsed": 630540,
		"internal_node_id": "0.0-3.0-0.259-0.259"
	},
	{
		"rt": 731,
		"stimulus": "<span style=\"font-size:30px; font-family: monospace\">O</span>",
		"response": " ",
		"trial": "exp-sent",
		"word": "O",
		"trial_type": "html-keyboard-response",
		"trial_index": 320,
		"time_elapsed": 631524,
		"internal_node_id": "0.0-3.0-1.259"
	},
	{
		"rt": 820,
		"stimulus": "<span style=\"font-size:30px; font-family: monospace\">menino</span>",
		"response": " ",
		"trial": "exp-sent",
		"word": "menino",
		"trial_type": "html-keyboard-response",
		"trial_index": 321,
		"time_elapsed": 632600,
		"internal_node_id": "0.0-3.0-1.260"
	},
	{
		"rt": 804,
		"stimulus": "<span style=\"font-size:30px; font-family: monospace\">riscou</span>",
		"response": " ",
		"trial": "exp-sent",
		"word": "riscou",
		"trial_type": "html-keyboard-response",
		"trial_index": 322,
		"time_elapsed": 633663,
		"internal_node_id": "0.0-3.0-1.261"
	},
	{
		"rt": 1023,
		"stimulus": "<span style=\"font-size:30px; font-family: monospace\">o</span>",
		"response": " ",
		"trial": "exp-sent",
		"word": "o",
		"trial_type": "html-keyboard-response",
		"trial_index": 323,
		"time_elapsed": 634940,
		"internal_node_id": "0.0-3.0-1.262"
	},
	{
		"rt": 1002,
		"stimulus": "<span style=\"font-size:30px; font-family: monospace\">caderno</span>",
		"response": " ",
		"trial": "exp-sent",
		"word": "caderno",
		"trial_type": "html-keyboard-response",
		"trial_index": 324,
		"time_elapsed": 636204,
		"internal_node_id": "0.0-3.0-1.263"
	},
	{
		"rt": 773,
		"stimulus": "<span style=\"font-size:30px; font-family: monospace\">com</span>",
		"response": " ",
		"trial": "exp-sent",
		"word": "com",
		"trial_type": "html-keyboard-response",
		"trial_index": 325,
		"time_elapsed": 637236,
		"internal_node_id": "0.0-3.0-1.264"
	},
	{
		"rt": 769,
		"stimulus": "<span style=\"font-size:30px; font-family: monospace\">a</span>",
		"response": " ",
		"trial": "exp-sent",
		"word": "a",
		"trial_type": "html-keyboard-response",
		"trial_index": 326,
		"time_elapsed": 638261,
		"internal_node_id": "0.0-3.0-1.265"
	},
	{
		"rt": 2455,
		"stimulus": "<span style=\"font-size:30px; font-family: monospace\">caneta.</span>",
		"response": " ",
		"trial": "comp",
		"word": "caneta.",
		"trial_type": "html-keyboard-response",
		"trial_index": 327,
		"time_elapsed": 640972,
		"internal_node_id": "0.0-3.0-1.266"
	},
	{
		"rt": 3039,
		"stimulus": "<span style=\"font-size:30px; font-family: monospace\">O menino riscou a parede com a caneta?</span>",
		"response": "n",
		"question": "O menino riscou a parede com a caneta?",
		"answer": "não",
		"trial": "comp",
		"trial_type": "html-keyboard-response",
		"trial_index": 328,
		"time_elapsed": 644270,
		"internal_node_id": "0.0-3.0-2.266-0.266",
		"accuracy": false
	},
	{
		"rt": null,
		"stimulus": "<span style= \"font-size:30px; font-family: monospace\">+</span>",
		"response": null,
		"trial_part": "fixation",
		"trial_type": "html-keyboard-response",
		"trial_index": 329,
		"time_elapsed": 645778,
		"internal_node_id": "0.0-3.0-0.267-0.267"
	},
	{
		"rt": 1114,
		"stimulus": "<span style=\"font-size:30px; font-family: monospace\">O</span>",
		"response": " ",
		"trial": "exp-sent",
		"word": "O",
		"trial_type": "html-keyboard-response",
		"trial_index": 330,
		"time_elapsed": 647147,
		"internal_node_id": "0.0-3.0-1.267"
	},
	{
		"rt": 652,
		"stimulus": "<span style=\"font-size:30px; font-family: monospace\">moço</span>",
		"response": " ",
		"trial": "exp-sent",
		"word": "moço",
		"trial_type": "html-keyboard-response",
		"trial_index": 331,
		"time_elapsed": 648054,
		"internal_node_id": "0.0-3.0-1.268"
	},
	{
		"rt": 694,
		"stimulus": "<span style=\"font-size:30px; font-family: monospace\">usou</span>",
		"response": " ",
		"trial": "exp-sent",
		"word": "usou",
		"trial_type": "html-keyboard-response",
		"trial_index": 332,
		"time_elapsed": 649003,
		"internal_node_id": "0.0-3.0-1.269"
	},
	{
		"rt": 506,
		"stimulus": "<span style=\"font-size:30px; font-family: monospace\">várias</span>",
		"response": " ",
		"trial": "exp-sent",
		"word": "várias",
		"trial_type": "html-keyboard-response",
		"trial_index": 333,
		"time_elapsed": 649766,
		"internal_node_id": "0.0-3.0-1.270"
	},
	{
		"rt": 648,
		"stimulus": "<span style=\"font-size:30px; font-family: monospace\">velas</span>",
		"response": " ",
		"trial": "exp-sent",
		"word": "velas",
		"trial_type": "html-keyboard-response",
		"trial_index": 334,
		"time_elapsed": 650669,
		"internal_node_id": "0.0-3.0-1.271"
	},
	{
		"rt": 524,
		"stimulus": "<span style=\"font-size:30px; font-family: monospace\">no</span>",
		"response": " ",
		"trial": "exp-sent",
		"word": "no",
		"trial_type": "html-keyboard-response",
		"trial_index": 335,
		"time_elapsed": 651453,
		"internal_node_id": "0.0-3.0-1.272"
	},
	{
		"rt": 542,
		"stimulus": "<span style=\"font-size:30px; font-family: monospace\">enfeite</span>",
		"response": " ",
		"trial": "exp-sent",
		"word": "enfeite",
		"trial_type": "html-keyboard-response",
		"trial_index": 336,
		"time_elapsed": 652250,
		"internal_node_id": "0.0-3.0-1.273"
	},
	{
		"rt": 489,
		"stimulus": "<span style=\"font-size:30px; font-family: monospace\">de</span>",
		"response": " ",
		"trial": "exp-sent",
		"word": "de",
		"trial_type": "html-keyboard-response",
		"trial_index": 337,
		"time_elapsed": 652998,
		"internal_node_id": "0.0-3.0-1.274"
	},
	{
		"rt": 1445,
		"stimulus": "<span style=\"font-size:30px; font-family: monospace\">mesa.</span>",
		"response": " ",
		"trial": "exp-sent",
		"word": "mesa.",
		"trial_type": "html-keyboard-response",
		"trial_index": 338,
		"time_elapsed": 654700,
		"internal_node_id": "0.0-3.0-1.275"
	},
	{
		"rt": null,
		"stimulus": "<span style= \"font-size:30px; font-family: monospace\">+</span>",
		"response": null,
		"trial_part": "fixation",
		"trial_type": "html-keyboard-response",
		"trial_index": 339,
		"time_elapsed": 655954,
		"internal_node_id": "0.0-3.0-0.276-0.276"
	},
	{
		"rt": 1539,
		"stimulus": "<span style=\"font-size:30px; font-family: monospace\">Gostamos</span>",
		"response": " ",
