[
	{
		"view_history": [
			{
				"page_index": 0,
				"viewing_time": 68220
			}
		],
		"rt": 68221,
		"trial_type": "instructions",
		"trial_index": 0,
		"time_elapsed": 68225,
		"internal_node_id": "0.0-0.0"
	},
	{
		"rt": null,
		"stimulus": "<span style= \"font-size:30px; font-family: monospace\">+</span>",
		"response": null,
		"trial_part": "fixation",
		"trial_type": "html-keyboard-response",
		"trial_index": 1,
		"time_elapsed": 69332,
		"internal_node_id": "0.0-1.0-0.0-0.0"
	},
	{
		"rt": 9491,
		"stimulus": "../audio/prac-question-1-1.mp3",
		"response": " ",
		"word": "O",
		"trial_type": "audio-keyboard-response",
		"trial_index": 2,
		"time_elapsed": 81467,
		"internal_node_id": "0.0-1.0-1.0"
	},
	{
		"rt": 1331,
		"stimulus": "../audio/prac-question-1-2.mp3",
		"response": " ",
		"word": "dia",
		"trial_type": "audio-keyboard-response",
		"trial_index": 3,
		"time_elapsed": 83163,
		"internal_node_id": "0.0-1.0-1.1"
	},
	{
		"rt": 1309,
		"stimulus": "../audio/prac-question-1-3.mp3",
		"response": " ",
		"word": "estará",
		"trial_type": "audio-keyboard-response",
		"trial_index": 4,
		"time_elapsed": 84901,
		"internal_node_id": "0.0-1.0-1.2"
	},
	{
		"rt": 1171,
		"stimulus": "../audio/prac-question-1-4.mp3",
		"response": " ",
		"word": "cheio",
		"trial_type": "audio-keyboard-response",
		"trial_index": 5,
		"time_elapsed": 86388,
		"internal_node_id": "0.0-1.0-1.3"
	},
	{
		"rt": 880,
		"stimulus": "../audio/prac-question-1-5.mp3",
		"response": " ",
		"word": "de",
		"trial_type": "audio-keyboard-response",
		"trial_index": 6,
		"time_elapsed": 87612,
		"internal_node_id": "0.0-1.0-1.4"
	},
	{
		"rt": 328,
		"stimulus": "../audio/prac-question-1-6.mp3",
		"response": " ",
		"word": "nuvens",
		"trial_type": "audio-keyboard-response",
		"trial_index": 7,
		"time_elapsed": 111888,
		"internal_node_id": "0.0-1.0-1.5"
	},
	{
		"rt": 4411,
		"stimulus": "../audio/prac-question-1-7.mp3",
		"response": " ",
		"word": "hoje.",
		"trial_type": "audio-keyboard-response",
		"trial_index": 8,
		"time_elapsed": 116657,
		"internal_node_id": "0.0-1.0-1.6"
	},
	{
		"rt": null,
		"stimulus": "<span style= \"font-size:30px; font-family: monospace\">+</span>",
		"response": null,
		"trial_part": "fixation",
		"trial_type": "html-keyboard-response",
		"trial_index": 9,
		"time_elapsed": 117930,
		"internal_node_id": "0.0-1.0-0.7-0.7"
	},
	{
		"rt": 1688,
		"stimulus": "../audio/prac-question-2-1.mp3",
		"response": " ",
		"word": "A",
		"trial_type": "audio-keyboard-response",
		"trial_index": 10,
		"time_elapsed": 120169,
		"internal_node_id": "0.0-1.0-1.7"
	},
	{
		"rt": 1568,
		"stimulus": "../audio/prac-question-2-2.mp3",
		"response": " ",
		"word": "caneca",
		"trial_type": "audio-keyboard-response",
		"trial_index": 11,
		"time_elapsed": 122406,
		"internal_node_id": "0.0-1.0-1.8"
	},
	{
		"rt": 1451,
		"stimulus": "../audio/prac-question-2-3.mp3",
		"response": " ",
		"word": "colorida",
		"trial_type": "audio-keyboard-response",
		"trial_index": 12,
		"time_elapsed": 124599,
		"internal_node_id": "0.0-1.0-1.9"
	},
	{
		"rt": 2141,
		"stimulus": "../audio/prac-question-2-4.mp3",
		"response": " ",
		"word": "caiu",
		"trial_type": "audio-keyboard-response",
		"trial_index": 13,
		"time_elapsed": 127110,
		"internal_node_id": "0.0-1.0-1.10"
	},
	{
		"rt": 2120,
		"stimulus": "../audio/prac-question-2-5.mp3",
		"response": " ",
		"word": "da",
		"trial_type": "audio-keyboard-response",
		"trial_index": 14,
		"time_elapsed": 129630,
		"internal_node_id": "0.0-1.0-1.11"
	},
	{
		"rt": 1192,
		"stimulus": "../audio/prac-question-2-6.mp3",
		"response": " ",
		"word": "mesa",
		"trial_type": "audio-keyboard-response",
		"trial_index": 15,
		"time_elapsed": 131240,
		"internal_node_id": "0.0-1.0-1.12"
	},
	{
		"rt": 1371,
		"stimulus": "../audio/prac-question-2-7.mp3",
		"response": " ",
		"word": "de",
		"trial_type": "audio-keyboard-response",
		"trial_index": 16,
		"time_elapsed": 132907,
		"internal_node_id": "0.0-1.0-1.13"
	},
	{
		"rt": 3648,
		"stimulus": "../audio/prac-question-2-8.mp3",
		"response": " ",
		"word": "jantar.",
		"trial_type": "audio-keyboard-response",
		"trial_index": 17,
		"time_elapsed": 139007,
		"internal_node_id": "0.0-1.0-1.14"
	},
	{
		"rt": 6364,
		"stimulus": "<span style=\"font-size:25px; font-family: monospace\">A caneca era colorida?</span>",
		"response": "s",
		"question": "A caneca era colorida?",
		"answer": "null",
		"trial": "prac-sent",
		"trial_type": "html-keyboard-response",
		"trial_index": 18,
		"time_elapsed": 145628,
		"internal_node_id": "0.0-1.0-2.14-0.14",
		"accuracy": false
	},
	{
		"view_history": [
			{
				"page_index": 0,
				"viewing_time": 3793
			}
		],
		"rt": 3794,
		"trial_type": "instructions",
		"trial_index": 19,
		"time_elapsed": 149936,
		"internal_node_id": "0.0-2.0"
	},
	{
		"rt": null,
		"stimulus": "<span style= \"font-size:30px; font-family: monospace\">+</span>",
		"response": null,
		"trial_part": "fixation",
		"trial_type": "html-keyboard-response",
		"trial_index": 20,
		"time_elapsed": 151051,
		"internal_node_id": "0.0-3.0-0.0-0.0"
	},
	{
		"rt": 3131,
		"stimulus": "../audio/42-1-masc.mp3",
		"response": " ",
		"word": "Eu",
		"trial_type": "audio-keyboard-response",
		"trial_index": 21,
		"time_elapsed": 154558,
		"internal_node_id": "0.0-3.0-1.0"
	},
	{
		"rt": 2781,
		"stimulus": "../audio/42-2-masc.mp3",
		"response": " ",
		"word": "fui",
		"trial_type": "audio-keyboard-response",
		"trial_index": 22,
		"time_elapsed": 157706,
		"internal_node_id": "0.0-3.0-1.1"
	},
	{
		"rt": 1219,
		"stimulus": "../audio/42-3-masc.mp3",
		"response": " ",
		"word": "a",
		"trial_type": "audio-keyboard-response",
		"trial_index": 23,
		"time_elapsed": 159372,
		"internal_node_id": "0.0-3.0-1.2"
	},
	{
		"rt": 941,
		"stimulus": "../audio/42-4-masc.mp3",
		"response": " ",
		"word": "uma",
		"trial_type": "audio-keyboard-response",
		"trial_index": 24,
		"time_elapsed": 160637,
		"internal_node_id": "0.0-3.0-1.3"
	},
	{
		"rt": 1280,
		"stimulus": "../audio/42-5-masc.mp3",
		"response": " ",
		"word": "loja",
		"trial_type": "audio-keyboard-response",
		"trial_index": 25,
		"time_elapsed": 162253,
		"internal_node_id": "0.0-3.0-1.4"
	},
	{
		"rt": 731,
		"stimulus": "../audio/42-6-masc.mp3",
		"response": " ",
		"word": "de",
		"trial_type": "audio-keyboard-response",
		"trial_index": 26,
		"time_elapsed": 163357,
		"internal_node_id": "0.0-3.0-1.5"
	},
	{
		"rt": 811,
		"stimulus": "../audio/42-7-masc.mp3",
		"response": " ",
		"word": "móveis",
		"trial_type": "audio-keyboard-response",
		"trial_index": 27,
		"time_elapsed": 164511,
		"internal_node_id": "0.0-3.0-1.6"
	},
	{
		"rt": 851,
		"stimulus": "../audio/42-8-masc.mp3",
		"response": " ",
		"word": "no",
		"trial_type": "audio-keyboard-response",
		"trial_index": 28,
		"time_elapsed": 165666,
		"internal_node_id": "0.0-3.0-1.7"
	},
	{
		"rt": 731,
		"stimulus": "../audio/42-9-masc.mp3",
		"response": " ",
		"word": "bairro.",
		"trial_type": "audio-keyboard-response",
		"trial_index": 29,
		"time_elapsed": 166743,
		"internal_node_id": "0.0-3.0-1.8"
	},
	{
		"rt": null,
		"stimulus": "<span style= \"font-size:30px; font-family: monospace\">+</span>",
		"response": null,
		"trial_part": "fixation",
		"trial_type": "html-keyboard-response",
		"trial_index": 30,
		"time_elapsed": 168018,
		"internal_node_id": "0.0-3.0-0.9-0.9"
	},
	{
		"rt": 1328,
		"stimulus": "../audio/44-1-fem.mp3",
		"response": " ",
		"word": "Meus",
		"trial_type": "audio-keyboard-response",
		"trial_index": 31,
		"time_elapsed": 169724,
		"internal_node_id": "0.0-3.0-1.9"
	},
	{
		"rt": 1032,
		"stimulus": "../audio/44-2-fem.mp3",
		"response": " ",
		"word": "irmãos",
		"trial_type": "audio-keyboard-response",
		"trial_index": 32,
		"time_elapsed": 171080,
		"internal_node_id": "0.0-3.0-1.10"
	},
	{
		"rt": 1048,
		"stimulus": "../audio/44-3-fem.mp3",
		"response": " ",
		"word": "brigam",
		"trial_type": "audio-keyboard-response",
		"trial_index": 33,
		"time_elapsed": 172453,
		"internal_node_id": "0.0-3.0-1.11"
	},
	{
		"rt": 1019,
		"stimulus": "../audio/44-4-fem.mp3",
		"response": " ",
		"word": "por",
		"trial_type": "audio-keyboard-response",
		"trial_index": 34,
		"time_elapsed": 173849,
		"internal_node_id": "0.0-3.0-1.12"
	},
	{
		"rt": 1400,
		"stimulus": "../audio/44-5-fem.mp3",
		"response": " ",
		"word": "bobagem",
		"trial_type": "audio-keyboard-response",
		"trial_index": 35,
		"time_elapsed": 175622,
		"internal_node_id": "0.0-3.0-1.13"
	},
	{
		"rt": 981,
		"stimulus": "../audio/44-6-fem.mp3",
		"response": " ",
		"word": "todos",
		"trial_type": "audio-keyboard-response",
		"trial_index": 36,
		"time_elapsed": 176953,
		"internal_node_id": "0.0-3.0-1.14"
	},
	{
		"rt": 891,
		"stimulus": "../audio/44-7-fem.mp3",
		"response": " ",
		"word": "os",
		"trial_type": "audio-keyboard-response",
		"trial_index": 37,
		"time_elapsed": 178145,
		"internal_node_id": "0.0-3.0-1.15"
	},
	{
		"rt": 1240,
		"stimulus": "../audio/44-8-fem.mp3",
		"response": " ",
		"word": "dias.",
		"trial_type": "audio-keyboard-response",
		"trial_index": 38,
		"time_elapsed": 179704,
		"internal_node_id": "0.0-3.0-1.16"
	},
	{
		"rt": null,
		"stimulus": "<span style= \"font-size:30px; font-family: monospace\">+</span>",
		"response": null,
		"trial_part": "fixation",
		"trial_type": "html-keyboard-response",
		"trial_index": 39,
		"time_elapsed": 180974,
		"internal_node_id": "0.0-3.0-0.17-0.17"
	},
	{
		"rt": 781,
		"stimulus": "../audio/41-1-fem.mp3",
		"response": " ",
		"word": "A",
		"trial_type": "audio-keyboard-response",
		"trial_index": 40,
		"time_elapsed": 182236,
		"internal_node_id": "0.0-3.0-1.17"
	},
	{
		"rt": 939,
		"stimulus": "../audio/41-2-fem.mp3",
		"response": " ",
		"word": "novela",
		"trial_type": "audio-keyboard-response",
		"trial_index": 41,
		"time_elapsed": 183617,
		"internal_node_id": "0.0-3.0-1.18"
	},
	{
		"rt": 3552,
		"stimulus": "../audio/41-3-fem.mp3",
		"response": " ",
		"word": "falava",
		"trial_type": "audio-keyboard-response",
		"trial_index": 42,
		"time_elapsed": 187517,
		"internal_node_id": "0.0-3.0-1.19"
	},
	{
		"rt": 680,
		"stimulus": "../audio/41-4-fem.mp3",
		"response": " ",
		"word": "de",
		"trial_type": "audio-keyboard-response",
		"trial_index": 43,
		"time_elapsed": 188575,
		"internal_node_id": "0.0-3.0-1.20"
	},
	{
		"rt": 920,
		"stimulus": "../audio/41-5-fem.mp3",
		"response": " ",
		"word": "paixão",
		"trial_type": "audio-keyboard-response",
		"trial_index": 44,
		"time_elapsed": 189829,
		"internal_node_id": "0.0-3.0-1.21"
	},
	{
		"rt": 3240,
		"stimulus": "../audio/41-6-fem.mp3",
		"response": " ",
		"word": "e",
		"trial_type": "audio-keyboard-response",
		"trial_index": 45,
		"time_elapsed": 193396,
		"internal_node_id": "0.0-3.0-1.22"
	},
	{
		"rt": 9680,
		"stimulus": "../audio/41-7-fem.mp3",
		"response": " ",
		"word": "comédia.",
		"trial_type": "audio-keyboard-response",
		"trial_index": 46,
		"time_elapsed": 203477,
		"internal_node_id": "0.0-3.0-1.23"
	},
	{
		"rt": null,
		"stimulus": "<span style= \"font-size:30px; font-family: monospace\">+</span>",
		"response": null,
		"trial_part": "fixation",
		"trial_type": "html-keyboard-response",
		"trial_index": 47,
		"time_elapsed": 204746,
		"internal_node_id": "0.0-3.0-0.24-0.24"
	},
	{
		"rt": 1040,
		"stimulus": "../audio/43-1-masc.mp3",
		"response": " ",
		"word": "Eu",
		"trial_type": "audio-keyboard-response",
		"trial_index": 48,
		"time_elapsed": 208227,
		"internal_node_id": "0.0-3.0-1.24"
	},
	{
		"rt": 832,
		"stimulus": "../audio/43-2-masc.mp3",
		"response": " ",
		"word": "achei",
		"trial_type": "audio-keyboard-response",
		"trial_index": 49,
		"time_elapsed": 209396,
		"internal_node_id": "0.0-3.0-1.25"
	},
	{
		"rt": 720,
		"stimulus": "../audio/43-3-masc.mp3",
		"response": " ",
		"word": "um",
		"trial_type": "audio-keyboard-response",
		"trial_index": 50,
		"time_elapsed": 210485,
		"internal_node_id": "0.0-3.0-1.26"
	},
	{
		"rt": 840,
		"stimulus": "../audio/43-4-masc.mp3",
		"response": " ",
		"word": "colchão",
		"trial_type": "audio-keyboard-response",
		"trial_index": 51,
		"time_elapsed": 211657,
		"internal_node_id": "0.0-3.0-1.27"
	},
	{
		"rt": 880,
		"stimulus": "../audio/43-5-masc.mp3",
		"response": " ",
		"word": "velho",
		"trial_type": "audio-keyboard-response",
		"trial_index": 52,
		"time_elapsed": 212891,
		"internal_node_id": "0.0-3.0-1.28"
	},
	{
		"rt": 760,
		"stimulus": "../audio/43-6-masc.mp3",
		"response": " ",
		"word": "e",
		"trial_type": "audio-keyboard-response",
		"trial_index": 53,
		"time_elapsed": 214020,
		"internal_node_id": "0.0-3.0-1.29"
	},
	{
		"rt": 1000,
		"stimulus": "../audio/43-7-masc.mp3",
		"response": " ",
		"word": "imundo",
		"trial_type": "audio-keyboard-response",
		"trial_index": 54,
		"time_elapsed": 215401,
		"internal_node_id": "0.0-3.0-1.30"
	},
	{
		"rt": 851,
		"stimulus": "../audio/43-8-masc.mp3",
		"response": " ",
		"word": "na",
		"trial_type": "audio-keyboard-response",
		"trial_index": 55,
		"time_elapsed": 216558,
		"internal_node_id": "0.0-3.0-1.31"
	},
	{
		"rt": 800,
		"stimulus": "../audio/43-9-masc.mp3",
		"response": " ",
		"word": "casa.",
		"trial_type": "audio-keyboard-response",
		"trial_index": 56,
		"time_elapsed": 217677,
		"internal_node_id": "0.0-3.0-1.32"
	},
	{
		"rt": null,
		"stimulus": "<span style= \"font-size:30px; font-family: monospace\">+</span>",
		"response": null,
		"trial_part": "fixation",
		"trial_type": "html-keyboard-response",
		"trial_index": 57,
		"time_elapsed": 218945,
		"internal_node_id": "0.0-3.0-0.33-0.33"
	},
	{
		"rt": 968,
		"stimulus": "../audio/45-1-fem.mp3",
		"response": " ",
		"word": "O",
		"trial_type": "audio-keyboard-response",
		"trial_index": 58,
		"time_elapsed": 220325,
		"internal_node_id": "0.0-3.0-1.33"
	},
	{
		"rt": 4499,
		"stimulus": "../audio/45-2-fem.mp3",
		"response": " ",
		"word": "homem",
		"trial_type": "audio-keyboard-response",
		"trial_index": 59,
		"time_elapsed": 225817,
		"internal_node_id": "0.0-3.0-1.34"
	},
	{
		"rt": 941,
		"stimulus": "../audio/45-3-fem.mp3",
		"response": " ",
		"word": "pagou",
		"trial_type": "audio-keyboard-response",
		"trial_index": 60,
		"time_elapsed": 232388,
		"internal_node_id": "0.0-3.0-1.35"
	},
	{
		"rt": 680,
		"stimulus": "../audio/45-4-fem.mp3",
		"response": " ",
		"word": "o",
		"trial_type": "audio-keyboard-response",
		"trial_index": 61,
		"time_elapsed": 233452,
		"internal_node_id": "0.0-3.0-1.36"
	},
	{
		"rt": 1272,
		"stimulus": "../audio/45-5-fem.mp3",
		"response": " ",
		"word": "aluguel",
		"trial_type": "audio-keyboard-response",
		"trial_index": 62,
		"time_elapsed": 235035,
		"internal_node_id": "0.0-3.0-1.37"
	},
	{
		"rt": 739,
		"stimulus": "../audio/45-6-fem.mp3",
		"response": " ",
		"word": "com",
		"trial_type": "audio-keyboard-response",
		"trial_index": 63,
		"time_elapsed": 236093,
		"internal_node_id": "0.0-3.0-1.38"
	},
	{
		"rt": 1400,
		"stimulus": "../audio/45-7-fem.mp3",
		"response": " ",
		"word": "atraso.",
		"trial_type": "audio-keyboard-response",
		"trial_index": 64,
		"time_elapsed": 237844,
		"internal_node_id": "0.0-3.0-1.39"
	},
	{
		"rt": 3997,
		"stimulus": "<span style=\"font-size:25px; font-family: monospace\">O homem pagou o aluguel em dia?</span>",
		"response": "n",
		"question": "O homem pagou o aluguel em dia?",
		"answer": "null",
		"trial": "exp-sent",
		"trial_type": "html-keyboard-response",
		"trial_index": 65,
		"time_elapsed": 242097,
		"internal_node_id": "0.0-3.0-2.39-0.39",
		"accuracy": false
	},
	{
		"rt": null,
		"stimulus": "<span style= \"font-size:30px; font-family: monospace\">+</span>",
		"response": null,
		"trial_part": "fixation",
		"trial_type": "html-keyboard-response",
		"trial_index": 66,
		"time_elapsed": 243627,
		"internal_node_id": "0.0-3.0-0.40-0.40"
	},
	{
		"rt": 1280,
		"stimulus": "../audio/76-1-fem.mp3",
		"response": " ",
		"word": "O",
		"trial_type": "audio-keyboard-response",
		"trial_index": 67,
		"time_elapsed": 245328,
		"internal_node_id": "0.0-3.0-1.40"
	},
	{
		"rt": 11341,
		"stimulus": "../audio/76-2-fem.mp3",
		"response": " ",
		"word": "bisavô",
		"trial_type": "audio-keyboard-response",
		"trial_index": 68,
		"time_elapsed": 257024,
		"internal_node_id": "0.0-3.0-1.41"
	},
	{
		"rt": 1080,
		"stimulus": "../audio/76-3-fem.mp3",
		"response": " ",
		"word": "comprou",
		"trial_type": "audio-keyboard-response",
		"trial_index": 69,
		"time_elapsed": 258529,
		"internal_node_id": "0.0-3.0-1.42"
	},
	{
		"rt": 880,
		"stimulus": "../audio/76-4-fem.mp3",
		"response": " ",
		"word": "um",
		"trial_type": "audio-keyboard-response",
		"trial_index": 70,
		"time_elapsed": 259734,
		"internal_node_id": "0.0-3.0-1.43"
	},
	{
		"rt": 5811,
		"stimulus": "../audio/76-5-fem.mp3",
		"response": " ",
		"word": "ralador",
		"trial_type": "audio-keyboard-response",
		"trial_index": 71,
		"time_elapsed": 265937,
		"internal_node_id": "0.0-3.0-1.44"
	},
	{
		"rt": 909,
		"stimulus": "../audio/76-6-fem.mp3",
		"response": " ",
		"word": "de",
		"trial_type": "audio-keyboard-response",
		"trial_index": 72,
		"time_elapsed": 267214,
		"internal_node_id": "0.0-3.0-1.45"
	},
	{
		"rt": 840,
		"stimulus": "../audio/76-7-fem.mp3",
		"response": " ",
		"word": "queijo.",
		"trial_type": "audio-keyboard-response",
		"trial_index": 73,
		"time_elapsed": 268377,
		"internal_node_id": "0.0-3.0-1.46"
	},
	{
		"rt": null,
		"stimulus": "<span style= \"font-size:30px; font-family: monospace\">+</span>",
		"response": null,
		"trial_part": "fixation",
		"trial_type": "html-keyboard-response",
		"trial_index": 74,
		"time_elapsed": 269644,
		"internal_node_id": "0.0-3.0-0.47-0.47"
	},
	{
		"rt": 928,
		"stimulus": "../audio/77-1-masc.mp3",
		"response": " ",
		"word": "A",
		"trial_type": "audio-keyboard-response",
		"trial_index": 75,
		"time_elapsed": 273009,
		"internal_node_id": "0.0-3.0-1.47"
	},
	{
		"rt": 1211,
		"stimulus": "../audio/77-2-masc.mp3",
		"response": " ",
		"word": "criança",
		"trial_type": "audio-keyboard-response",
		"trial_index": 76,
		"time_elapsed": 274637,
		"internal_node_id": "0.0-3.0-1.48"
	},
	{
		"rt": 3659,
		"stimulus": "../audio/77-3-masc.mp3",
		"response": " ",
		"word": "ficou",
		"trial_type": "audio-keyboard-response",
		"trial_index": 77,
		"time_elapsed": 278621,
		"internal_node_id": "0.0-3.0-1.49"
	},
	{
		"rt": 1000,
		"stimulus": "../audio/77-4-masc.mp3",
		"response": " ",
		"word": "muito",
		"trial_type": "audio-keyboard-response",
		"trial_index": 78,
		"time_elapsed": 280022,
		"internal_node_id": "0.0-3.0-1.50"
	},
	{
		"rt": 920,
		"stimulus": "../audio/77-5-masc.mp3",
		"response": " ",
		"word": "feliz",
		"trial_type": "audio-keyboard-response",
		"trial_index": 79,
		"time_elapsed": 281281,
		"internal_node_id": "0.0-3.0-1.51"
	},
	{
		"rt": 779,
		"stimulus": "../audio/77-6-masc.mp3",
		"response": " ",
		"word": "com",
		"trial_type": "audio-keyboard-response",
		"trial_index": 80,
		"time_elapsed": 282365,
		"internal_node_id": "0.0-3.0-1.52"
	},
	{
		"rt": 709,
		"stimulus": "../audio/77-7-masc.mp3",
		"response": " ",
		"word": "o",
		"trial_type": "audio-keyboard-response",
		"trial_index": 81,
		"time_elapsed": 283494,
		"internal_node_id": "0.0-3.0-1.53"
	},
	{
		"rt": 1619,
		"stimulus": "../audio/77-8-masc.mp3",
		"response": " ",
		"word": "brinquedo.",
		"trial_type": "audio-keyboard-response",
		"trial_index": 82,
		"time_elapsed": 285444,
		"internal_node_id": "0.0-3.0-1.54"
	},
	{
		"rt": null,
		"stimulus": "<span style= \"font-size:30px; font-family: monospace\">+</span>",
		"response": null,
		"trial_part": "fixation",
		"trial_type": "html-keyboard-response",
		"trial_index": 83,
		"time_elapsed": 286715,
		"internal_node_id": "0.0-3.0-0.55-0.55"
	},
	{
		"rt": 832,
		"stimulus": "../audio/79-1-fem.mp3",
		"response": " ",
		"word": "A",
		"trial_type": "audio-keyboard-response",
		"trial_index": 84,
		"time_elapsed": 287920,
		"internal_node_id": "0.0-3.0-1.55"
	},
	{
		"rt": 1029,
		"stimulus": "../audio/79-2-fem.mp3",
		"response": " ",
		"word": "médica",
		"trial_type": "audio-keyboard-response",
		"trial_index": 85,
		"time_elapsed": 289299,
		"internal_node_id": "0.0-3.0-1.56"
	},
	{
		"rt": 1229,
		"stimulus": "../audio/79-3-fem.mp3",
		"response": " ",
		"word": "verificou",
		"trial_type": "audio-keyboard-response",
		"trial_index": 86,
		"time_elapsed": 290883,
		"internal_node_id": "0.0-3.0-1.57"
	},
	{
		"rt": 771,
		"stimulus": "../audio/79-4-fem.mp3",
		"response": " ",
		"word": "a",
		"trial_type": "audio-keyboard-response",
		"trial_index": 87,
		"time_elapsed": 291987,
		"internal_node_id": "0.0-3.0-1.58"
	},
	{
		"rt": 1520,
		"stimulus": "../audio/79-5-fem.mp3",
		"response": " ",
		"word": "gengiva",
		"trial_type": "audio-keyboard-response",
		"trial_index": 88,
		"time_elapsed": 293894,
		"internal_node_id": "0.0-3.0-1.59"
	},
	{
		"rt": 949,
		"stimulus": "../audio/79-6-fem.mp3",
		"response": " ",
		"word": "por",
		"trial_type": "audio-keyboard-response",
		"trial_index": 89,
		"time_elapsed": 295218,
		"internal_node_id": "0.0-3.0-1.60"
	},
	{
		"rt": 1320,
		"stimulus": "../audio/79-7-fem.mp3",
		"response": " ",
		"word": "último.",
		"trial_type": "audio-keyboard-response",
		"trial_index": 90,
		"time_elapsed": 296869,
		"internal_node_id": "0.0-3.0-1.61"
	},
	{
		"rt": null,
		"stimulus": "<span style= \"font-size:30px; font-family: monospace\">+</span>",
		"response": null,
		"trial_part": "fixation",
		"trial_type": "html-keyboard-response",
		"trial_index": 91,
		"time_elapsed": 298128,
		"internal_node_id": "0.0-3.0-0.62-0.62"
	},
	{
		"rt": 1429,
		"stimulus": "../audio/78-1-fem.mp3",
		"response": " ",
		"word": "Eles",
		"trial_type": "audio-keyboard-response",
		"trial_index": 92,
		"time_elapsed": 299973,
		"internal_node_id": "0.0-3.0-1.62"
	},
	{
		"rt": 1149,
		"stimulus": "../audio/78-2-fem.mp3",
		"response": " ",
		"word": "trazem",
		"trial_type": "audio-keyboard-response",
		"trial_index": 93,
		"time_elapsed": 301498,
		"internal_node_id": "0.0-3.0-1.63"
	},
	{
		"rt": 800,
		"stimulus": "../audio/78-3-fem.mp3",
		"response": " ",
		"word": "um",
		"trial_type": "audio-keyboard-response",
		"trial_index": 94,
		"time_elapsed": 302651,
		"internal_node_id": "0.0-3.0-1.64"
	},
	{
		"rt": 1101,
		"stimulus": "../audio/78-4-fem.mp3",
		"response": " ",
		"word": "fato",
		"trial_type": "audio-keyboard-response",
		"trial_index": 95,
		"time_elapsed": 304155,
		"internal_node_id": "0.0-3.0-1.65"
	},
	{
		"rt": 1509,
		"stimulus": "../audio/78-5-fem.mp3",
		"response": " ",
		"word": "urgente",
		"trial_type": "audio-keyboard-response",
		"trial_index": 96,
		"time_elapsed": 306054,
		"internal_node_id": "0.0-3.0-1.66"
	},
	{
		"rt": 1179,
		"stimulus": "../audio/78-6-fem.mp3",
		"response": " ",
		"word": "todos",
		"trial_type": "audio-keyboard-response",
		"trial_index": 97,
		"time_elapsed": 307564,
		"internal_node_id": "0.0-3.0-1.67"
	},
	{
		"rt": 1051,
		"stimulus": "../audio/78-7-fem.mp3",
		"response": " ",
		"word": "os",
		"trial_type": "audio-keyboard-response",
		"trial_index": 98,
		"time_elapsed": 308939,
		"internal_node_id": "0.0-3.0-1.68"
	},
	{
		"rt": 1200,
		"stimulus": "../audio/78-8-fem.mp3",
		"response": " ",
		"word": "dias.",
		"trial_type": "audio-keyboard-response",
		"trial_index": 99,
		"time_elapsed": 310478,
		"internal_node_id": "0.0-3.0-1.69"
	},
	{
		"rt": null,
		"stimulus": "<span style= \"font-size:30px; font-family: monospace\">+</span>",
		"response": null,
		"trial_part": "fixation",
		"trial_type": "html-keyboard-response",
		"trial_index": 100,
		"time_elapsed": 311745,
		"internal_node_id": "0.0-3.0-0.70-0.70"
	},
	{
		"rt": 80,
		"stimulus": "../audio/80-1-masc.mp3",
		"response": " ",
		"word": "Meu",
		"trial_type": "audio-keyboard-response",
		"trial_index": 101,
		"time_elapsed": 312197,
		"internal_node_id": "0.0-3.0-1.70"
	},
	{
		"rt": 920,
		"stimulus": "../audio/80-2-masc.mp3",
		"response": " ",
		"word": "primo",
		"trial_type": "audio-keyboard-response",
		"trial_index": 102,
		"time_elapsed": 313532,
		"internal_node_id": "0.0-3.0-1.71"
	},
	{
		"rt": 912,
		"stimulus": "../audio/80-3-masc.mp3",
		"response": " ",
		"word": "conheceu",
		"trial_type": "audio-keyboard-response",
		"trial_index": 103,
		"time_elapsed": 314795,
		"internal_node_id": "0.0-3.0-1.72"
	},
	{
		"rt": 840,
		"stimulus": "../audio/80-4-masc.mp3",
		"response": " ",
		"word": "um",
		"trial_type": "audio-keyboard-response",
		"trial_index": 104,
		"time_elapsed": 315964,
		"internal_node_id": "0.0-3.0-1.73"
	},
	{
		"rt": 949,
		"stimulus": "../audio/80-5-masc.mp3",
		"response": " ",
		"word": "jovem",
		"trial_type": "audio-keyboard-response",
		"trial_index": 105,
		"time_elapsed": 317270,
		"internal_node_id": "0.0-3.0-1.74"
	},
	{
		"rt": 1131,
		"stimulus": "../audio/80-6-masc.mp3",
		"response": " ",
		"word": "amável",
		"trial_type": "audio-keyboard-response",
		"trial_index": 106,
		"time_elapsed": 318741,
		"internal_node_id": "0.0-3.0-1.75"
	},
	{
		"rt": 1091,
		"stimulus": "../audio/80-7-masc.mp3",
		"response": " ",
		"word": "e",
		"trial_type": "audio-keyboard-response",
		"trial_index": 107,
		"time_elapsed": 320147,
		"internal_node_id": "0.0-3.0-1.76"
	},
	{
		"rt": 1331,
		"stimulus": "../audio/80-8-masc.mp3",
		"response": " ",
		"word": "confiante.",
		"trial_type": "audio-keyboard-response",
		"trial_index": 108,
		"time_elapsed": 321818,
		"internal_node_id": "0.0-3.0-1.77"
	},
	{
		"rt": 7594,
		"stimulus": "<span style=\"font-size:25px; font-family: monospace\">O primo conheceu um jovem irritante?</span>",
		"response": "n",
		"question": "O primo conheceu um jovem irritante?",
		"answer": "null",
		"trial": "exp-sent",
		"trial_type": "html-keyboard-response",
		"trial_index": 109,
		"time_elapsed": 329679,
		"internal_node_id": "0.0-3.0-2.77-0.77",
		"accuracy": false
	},
	{
		"rt": null,
		"stimulus": "<span style= \"font-size:30px; font-family: monospace\">+</span>",
		"response": null,
		"trial_part": "fixation",
		"trial_type": "html-keyboard-response",
		"trial_index": 110,
		"time_elapsed": 331212,
		"internal_node_id": "0.0-3.0-0.78-0.78"
	},
	{
		"rt": 651,
		"stimulus": "../audio/56-1-masc.mp3",
		"response": " ",
		"word": "A",
		"trial_type": "audio-keyboard-response",
		"trial_index": 111,
		"time_elapsed": 332253,
		"internal_node_id": "0.0-3.0-1.78"
	},
	{
		"rt": 869,
		"stimulus": "../audio/56-2-masc.mp3",
		"response": " ",
		"word": "moça",
		"trial_type": "audio-keyboard-response",
		"trial_index": 112,
		"time_elapsed": 335525,
		"internal_node_id": "0.0-3.0-1.79"
	},
	{
		"rt": 909,
		"stimulus": "../audio/56-3-masc.mp3",
		"response": " ",
		"word": "foi",
		"trial_type": "audio-keyboard-response",
		"trial_index": 113,
		"time_elapsed": 336747,
		"internal_node_id": "0.0-3.0-1.80"
	},
	{
		"rt": 749,
		"stimulus": "../audio/56-4-masc.mp3",
		"response": " ",
		"word": "à",
		"trial_type": "audio-keyboard-response",
		"trial_index": 114,
		"time_elapsed": 337818,
		"internal_node_id": "0.0-3.0-1.81"
	},
	{
		"rt": 931,
		"stimulus": "../audio/56-5-masc.mp3",
		"response": " ",
		"word": "agência",
		"trial_type": "audio-keyboard-response",
		"trial_index": 115,
		"time_elapsed": 339133,
		"internal_node_id": "0.0-3.0-1.82"
	},
	{
		"rt": 1179,
		"stimulus": "../audio/56-6-masc.mp3",
		"response": " ",
		"word": "bancária",
		"trial_type": "audio-keyboard-response",
		"trial_index": 116,
		"time_elapsed": 340661,
		"internal_node_id": "0.0-3.0-1.83"
	},
	{
		"rt": 1000,
		"stimulus": "../audio/56-7-masc.mp3",
		"response": " ",
		"word": "ontem",
		"trial_type": "audio-keyboard-response",
		"trial_index": 117,
		"time_elapsed": 341974,
		"internal_node_id": "0.0-3.0-1.84"
	},
	{
		"rt": 861,
		"stimulus": "../audio/56-8-masc.mp3",
		"response": " ",
		"word": "de",
		"trial_type": "audio-keyboard-response",
		"trial_index": 118,
		"time_elapsed": 343150,
		"internal_node_id": "0.0-3.0-1.85"
	},
	{
		"rt": 869,
		"stimulus": "../audio/56-9-masc.mp3",
		"response": " ",
		"word": "tarde.",
		"trial_type": "audio-keyboard-response",
		"trial_index": 119,
		"time_elapsed": 344415,
		"internal_node_id": "0.0-3.0-1.86"
	},
	{
		"rt": null,
		"stimulus": "<span style= \"font-size:30px; font-family: monospace\">+</span>",
		"response": null,
		"trial_part": "fixation",
		"trial_type": "html-keyboard-response",
		"trial_index": 120,
		"time_elapsed": 345669,
		"internal_node_id": "0.0-3.0-0.87-0.87"
	},
	{
		"rt": 1192,
		"stimulus": "../audio/58-1-masc.mp3",
		"response": " ",
		"word": "Havia",
		"trial_type": "audio-keyboard-response",
		"trial_index": 121,
		"time_elapsed": 347235,
		"internal_node_id": "0.0-3.0-1.87"
	},
	{
		"rt": 1011,
		"stimulus": "../audio/58-2-masc.mp3",
		"response": " ",
		"word": "apenas",
		"trial_type": "audio-keyboard-response",
		"trial_index": 122,
		"time_elapsed": 348585,
		"internal_node_id": "0.0-3.0-1.88"
	},
	{
		"rt": 720,
		"stimulus": "../audio/58-3-masc.mp3",
		"response": " ",
		"word": "um",
		"trial_type": "audio-keyboard-response",
		"trial_index": 123,
		"time_elapsed": 349634,
		"internal_node_id": "0.0-3.0-1.89"
	},
	{
		"rt": 1120,
		"stimulus": "../audio/58-4-masc.mp3",
		"response": " ",
		"word": "último",
		"trial_type": "audio-keyboard-response",
		"trial_index": 124,
		"time_elapsed": 351108,
		"internal_node_id": "0.0-3.0-1.90"
	},
	{
		"rt": 1269,
		"stimulus": "../audio/58-5-masc.mp3",
		"response": " ",
		"word": "herdeiro",
		"trial_type": "audio-keyboard-response",
		"trial_index": 125,
		"time_elapsed": 352690,
		"internal_node_id": "0.0-3.0-1.91"
	},
	{
		"rt": 861,
		"stimulus": "../audio/58-6-masc.mp3",
		"response": " ",
		"word": "do",
		"trial_type": "audio-keyboard-response",
		"trial_index": 126,
		"time_elapsed": 353943,
		"internal_node_id": "0.0-3.0-1.92"
	},
	{
		"rt": 1349,
		"stimulus": "../audio/58-7-masc.mp3",
		"response": " ",
		"word": "dinheiro.",
		"trial_type": "audio-keyboard-response",
		"trial_index": 127,
		"time_elapsed": 355652,
		"internal_node_id": "0.0-3.0-1.93"
	},
	{
		"rt": null,
		"stimulus": "<span style= \"font-size:30px; font-family: monospace\">+</span>",
		"response": null,
		"trial_part": "fixation",
		"trial_type": "html-keyboard-response",
		"trial_index": 128,
		"time_elapsed": 356918,
		"internal_node_id": "0.0-3.0-0.94-0.94"
	},
	{
		"rt": 880,
		"stimulus": "../audio/57-1-masc.mp3",
		"response": " ",
		"word": "O",
		"trial_type": "audio-keyboard-response",
		"trial_index": 129,
		"time_elapsed": 358223,
		"internal_node_id": "0.0-3.0-1.94"
	},
	{
		"rt": 1680,
		"stimulus": "../audio/57-2-masc.mp3",
		"response": " ",
		"word": "capitão",
		"trial_type": "audio-keyboard-response",
		"trial_index": 130,
		"time_elapsed": 360304,
		"internal_node_id": "0.0-3.0-1.95"
	},
	{
		"rt": 920,
		"stimulus": "../audio/57-3-masc.mp3",
		"response": " ",
		"word": "deu",
		"trial_type": "audio-keyboard-response",
		"trial_index": 131,
		"time_elapsed": 361604,
		"internal_node_id": "0.0-3.0-1.96"
	},
	{
		"rt": 829,
		"stimulus": "../audio/57-4-masc.mp3",
		"response": " ",
		"word": "uma",
		"trial_type": "audio-keyboard-response",
		"trial_index": 132,
		"time_elapsed": 362750,
		"internal_node_id": "0.0-3.0-1.97"
	},
	{
		"rt": 1371,
		"stimulus": "../audio/57-5-masc.mp3",
		"response": " ",
		"word": "instrução",
		"trial_type": "audio-keyboard-response",
		"trial_index": 133,
		"time_elapsed": 364546,
		"internal_node_id": "0.0-3.0-1.98"
	},
	{
		"rt": 771,
		"stimulus": "../audio/57-6-masc.mp3",
		"response": " ",
		"word": "para",
		"trial_type": "audio-keyboard-response",
		"trial_index": 134,
		"time_elapsed": 365720,
		"internal_node_id": "0.0-3.0-1.99"
	},
	{
		"rt": 1059,
		"stimulus": "../audio/57-7-masc.mp3",
		"response": " ",
		"word": "as",
		"trial_type": "audio-keyboard-response",
		"trial_index": 135,
		"time_elapsed": 367096,
		"internal_node_id": "0.0-3.0-1.100"
	},
	{
		"rt": 1661,
		"stimulus": "../audio/57-8-masc.mp3",
		"response": " ",
		"word": "pessoas.",
		"trial_type": "audio-keyboard-response",
		"trial_index": 136,
		"time_elapsed": 369115,
		"internal_node_id": "0.0-3.0-1.101"
	},
	{
		"rt": null,
		"stimulus": "<span style= \"font-size:30px; font-family: monospace\">+</span>",
		"response": null,
		"trial_part": "fixation",
		"trial_type": "html-keyboard-response",
		"trial_index": 137,
		"time_elapsed": 370396,
		"internal_node_id": "0.0-3.0-0.102-0.102"
	},
	{
		"rt": 179,
		"stimulus": "../audio/59-1-masc.mp3",
		"response": " ",
		"word": "O",
		"trial_type": "audio-keyboard-response",
		"trial_index": 138,
		"time_elapsed": 370963,
		"internal_node_id": "0.0-3.0-1.102"
	},
	{
		"rt": 1179,
		"stimulus": "../audio/59-2-masc.mp3",
		"response": " ",
		"word": "carteiro",
		"trial_type": "audio-keyboard-response",
		"trial_index": 139,
		"time_elapsed": 372491,
		"internal_node_id": "0.0-3.0-1.103"
	},
	{
		"rt": 891,
		"stimulus": "../audio/59-3-masc.mp3",
		"response": " ",
		"word": "fez",
		"trial_type": "audio-keyboard-response",
		"trial_index": 140,
		"time_elapsed": 373745,
		"internal_node_id": "0.0-3.0-1.104"
	},
	{
		"rt": 1000,
		"stimulus": "../audio/59-4-masc.mp3",
		"response": " ",
		"word": "uma",
		"trial_type": "audio-keyboard-response",
		"trial_index": 141,
		"time_elapsed": 375066,
		"internal_node_id": "0.0-3.0-1.105"
	},
	{
		"rt": 1248,
		"stimulus": "../audio/59-5-masc.mp3",
		"response": " ",
		"word": "tentativa",
		"trial_type": "audio-keyboard-response",
		"trial_index": 142,
		"time_elapsed": 376687,
		"internal_node_id": "0.0-3.0-1.106"
	},
	{
		"rt": 832,
		"stimulus": "../audio/59-6-masc.mp3",
		"response": " ",
		"word": "de",
		"trial_type": "audio-keyboard-response",
		"trial_index": 143,
		"time_elapsed": 377839,
		"internal_node_id": "0.0-3.0-1.107"
	},
	{
		"rt": 1069,
		"stimulus": "../audio/59-7-masc.mp3",
		"response": " ",
		"word": "entrega.",
		"trial_type": "audio-keyboard-response",
		"trial_index": 144,
		"time_elapsed": 379229,
		"internal_node_id": "0.0-3.0-1.108"
	},
	{
		"rt": null,
		"stimulus": "<span style= \"font-size:30px; font-family: monospace\">+</span>",
		"response": null,
		"trial_part": "fixation",
		"trial_type": "html-keyboard-response",
		"trial_index": 145,
		"time_elapsed": 380488,
		"internal_node_id": "0.0-3.0-0.109-0.109"
	},
	{
		"rt": 1248,
		"stimulus": "../audio/60-1-fem.mp3",
		"response": " ",
		"word": "Ondas",
		"trial_type": "audio-keyboard-response",
		"trial_index": 146,
		"time_elapsed": 382163,
		"internal_node_id": "0.0-3.0-1.109"
	},
	{
		"rt": 781,
		"stimulus": "../audio/60-2-fem.mp3",
		"response": " ",
		"word": "têm",
		"trial_type": "audio-keyboard-response",
		"trial_index": 147,
		"time_elapsed": 383268,
		"internal_node_id": "0.0-3.0-1.110"
	},
	{
		"rt": 880,
		"stimulus": "../audio/60-3-fem.mp3",
		"response": " ",
		"word": "um",
		"trial_type": "audio-keyboard-response",
		"trial_index": 148,
		"time_elapsed": 384513,
		"internal_node_id": "0.0-3.0-1.111"
	},
	{
		"rt": 1301,
		"stimulus": "../audio/60-4-fem.mp3",
		"response": " ",
		"word": "impacto",
		"trial_type": "audio-keyboard-response",
		"trial_index": 149,
		"time_elapsed": 386157,
		"internal_node_id": "0.0-3.0-1.112"
	},
	{
		"rt": 1669,
		"stimulus": "../audio/60-5-fem.mp3",
		"response": " ",
		"word": "destrutivo",
		"trial_type": "audio-keyboard-response",
		"trial_index": 150,
		"time_elapsed": 388184,
		"internal_node_id": "0.0-3.0-1.113"
	},
	{
		"rt": 861,
		"stimulus": "../audio/60-6-fem.mp3",
		"response": " ",
		"word": "no",
		"trial_type": "audio-keyboard-response",
		"trial_index": 151,
		"time_elapsed": 389544,
		"internal_node_id": "0.0-3.0-1.114"
	},
	{
		"rt": 1512,
		"stimulus": "../audio/60-7-fem.mp3",
		"response": " ",
		"word": "litoral.",
		"trial_type": "audio-keyboard-response",
		"trial_index": 152,
		"time_elapsed": 391434,
		"internal_node_id": "0.0-3.0-1.115"
	},
	{
		"rt": 4729,
		"stimulus": "<span style=\"font-size:25px; font-family: monospace\">Ondas têm um impacto destrutivo?</span>",
		"response": "s",
		"question": "Ondas têm um impacto destrutivo?",
		"answer": "null",
		"trial": "exp-sent",
		"trial_type": "html-keyboard-response",
		"trial_index": 153,
		"time_elapsed": 396417,
		"internal_node_id": "0.0-3.0-2.115-0.115",
		"accuracy": false
	},
	{
		"rt": null,
		"stimulus": "<span style= \"font-size:30px; font-family: monospace\">+</span>",
		"response": null,
		"trial_part": "fixation",
		"trial_type": "html-keyboard-response",
		"trial_index": 154,
		"time_elapsed": 397922,
		"internal_node_id": "0.0-3.0-0.116-0.116"
	},
	{
		"rt": 1931,
		"stimulus": "../audio/19-1-fem.mp3",
		"response": " ",
		"word": "O",
		"trial_type": "audio-keyboard-response",
		"trial_index": 155,
		"time_elapsed": 402264,
		"internal_node_id": "0.0-3.0-1.116"
	},
	{
		"rt": 1120,
		"stimulus": "../audio/19-2-fem.mp3",
		"response": " ",
		"word": "menino",
		"trial_type": "audio-keyboard-response",
		"trial_index": 156,
		"time_elapsed": 403783,
		"internal_node_id": "0.0-3.0-1.117"
	},
	{
		"rt": 949,
		"stimulus": "../audio/19-3-fem.mp3",
		"response": " ",
		"word": "ganhou",
		"trial_type": "audio-keyboard-response",
		"trial_index": 157,
		"time_elapsed": 405063,
		"internal_node_id": "0.0-3.0-1.118"
	},
	{
		"rt": 760,
		"stimulus": "../audio/19-4-fem.mp3",
		"response": " ",
		"word": "uma",
		"trial_type": "audio-keyboard-response",
		"trial_index": 158,
		"time_elapsed": 406169,
		"internal_node_id": "0.0-3.0-1.119"
	},
	{
		"rt": 960,
		"stimulus": "../audio/19-5-fem.mp3",
		"response": " ",
		"word": "bala",
		"trial_type": "audio-keyboard-response",
		"trial_index": 159,
		"time_elapsed": 407456,
		"internal_node_id": "0.0-3.0-1.120"
	},
	{
		"rt": 1120,
		"stimulus": "../audio/19-6-fem.mp3",
		"response": " ",
		"word": "depois",
		"trial_type": "audio-keyboard-response",
		"trial_index": 160,
		"time_elapsed": 408910,
		"internal_node_id": "0.0-3.0-1.121"
	},
	{
		"rt": 851,
		"stimulus": "../audio/19-7-fem.mp3",
		"response": " ",
		"word": "do",
		"trial_type": "audio-keyboard-response",
		"trial_index": 161,
		"time_elapsed": 410067,
		"internal_node_id": "0.0-3.0-1.122"
	},
	{
		"rt": 1229,
		"stimulus": "../audio/19-8-fem.mp3",
		"response": " ",
		"word": "almoço.",
		"trial_type": "audio-keyboard-response",
		"trial_index": 162,
		"time_elapsed": 411712,
		"internal_node_id": "0.0-3.0-1.123"
	},
	{
		"rt": null,
		"stimulus": "<span style= \"font-size:30px; font-family: monospace\">+</span>",
		"response": null,
		"trial_part": "fixation",
		"trial_type": "html-keyboard-response",
		"trial_index": 163,
		"time_elapsed": 412989,
		"internal_node_id": "0.0-3.0-0.124-0.124"
	},
	{
		"rt": 240,
		"stimulus": "../audio/17-1-fem.mp3",
		"response": " ",
		"word": "Falaram",
		"trial_type": "audio-keyboard-response",
		"trial_index": 164,
		"time_elapsed": 413641,
		"internal_node_id": "0.0-3.0-1.124"
	},
	{
		"rt": 1120,
		"stimulus": "../audio/17-2-fem.mp3",
		"response": " ",
		"word": "da",
		"trial_type": "audio-keyboard-response",
		"trial_index": 165,
		"time_elapsed": 415075,
		"internal_node_id": "0.0-3.0-1.125"
	},
	{
		"rt": 749,
		"stimulus": "../audio/17-3-fem.mp3",
		"response": " ",
		"word": "lei",
		"trial_type": "audio-keyboard-response",
		"trial_index": 166,
		"time_elapsed": 416150,
		"internal_node_id": "0.0-3.0-1.126"
	},
	{
		"rt": 741,
		"stimulus": "../audio/17-4-fem.mp3",
		"response": " ",
		"word": "no",
		"trial_type": "audio-keyboard-response",
		"trial_index": 167,
		"time_elapsed": 417230,
		"internal_node_id": "0.0-3.0-1.127"
	},
	{
		"rt": 691,
		"stimulus": "../audio/17-5-fem.mp3",
		"response": " ",
		"word": "ministério",
		"trial_type": "audio-keyboard-response",
		"trial_index": 168,
		"time_elapsed": 418279,
		"internal_node_id": "0.0-3.0-1.128"
	},
	{
		"rt": 1109,
		"stimulus": "../audio/17-6-fem.mp3",
		"response": " ",
		"word": "diversas",
		"trial_type": "audio-keyboard-response",
		"trial_index": 169,
		"time_elapsed": 419739,
		"internal_node_id": "0.0-3.0-1.129"
	},
	{
		"rt": 931,
		"stimulus": "../audio/17-7-fem.mp3",
		"response": " ",
		"word": "vezes.",
		"trial_type": "audio-keyboard-response",
		"trial_index": 170,
		"time_elapsed": 421057,
		"internal_node_id": "0.0-3.0-1.130"
	},
	{
		"rt": null,
		"stimulus": "<span style= \"font-size:30px; font-family: monospace\">+</span>",
		"response": null,
		"trial_part": "fixation",
		"trial_type": "html-keyboard-response",
		"trial_index": 171,
		"time_elapsed": 422327,
		"internal_node_id": "0.0-3.0-0.131-0.131"
	},
	{
		"rt": 1299,
		"stimulus": "../audio/18-1-fem.mp3",
		"response": " ",
		"word": "O",
		"trial_type": "audio-keyboard-response",
		"trial_index": 172,
		"time_elapsed": 424089,
		"internal_node_id": "0.0-3.0-1.131"
	},
	{
		"rt": 1301,
		"stimulus": "../audio/18-2-fem.mp3",
		"response": " ",
		"word": "enredo",
		"trial_type": "audio-keyboard-response",
		"trial_index": 173,
		"time_elapsed": 425747,
		"internal_node_id": "0.0-3.0-1.132"
	},
	{
		"rt": 821,
		"stimulus": "../audio/18-3-fem.mp3",
		"response": " ",
		"word": "traz",
		"trial_type": "audio-keyboard-response",
		"trial_index": 174,
		"time_elapsed": 426904,
		"internal_node_id": "0.0-3.0-1.133"
	},
	{
		"rt": 1000,
		"stimulus": "../audio/18-4-fem.mp3",
		"response": " ",
		"word": "um",
		"trial_type": "audio-keyboard-response",
		"trial_index": 175,
		"time_elapsed": 428223,
		"internal_node_id": "0.0-3.0-1.134"
	},
	{
		"rt": 1152,
		"stimulus": "../audio/18-5-fem.mp3",
		"response": " ",
		"word": "dragão",
		"trial_type": "audio-keyboard-response",
		"trial_index": 176,
		"time_elapsed": 429713,
		"internal_node_id": "0.0-3.0-1.135"
	},
	{
		"rt": 952,
		"stimulus": "../audio/18-6-fem.mp3",
		"response": " ",
		"word": "forte",
		"trial_type": "audio-keyboard-response",
		"trial_index": 177,
		"time_elapsed": 430997,
		"internal_node_id": "0.0-3.0-1.136"
	},
	{
		"rt": 781,
		"stimulus": "../audio/18-7-fem.mp3",
		"response": " ",
		"word": "e",
		"trial_type": "audio-keyboard-response",
		"trial_index": 178,
		"time_elapsed": 432157,
		"internal_node_id": "0.0-3.0-1.137"
	},
	{
		"rt": 1640,
		"stimulus": "../audio/18-8-fem.mp3",
		"response": " ",
		"word": "solitário.",
		"trial_type": "audio-keyboard-response",
		"trial_index": 179,
		"time_elapsed": 434214,
		"internal_node_id": "0.0-3.0-1.138"
	},
	{
		"rt": null,
		"stimulus": "<span style= \"font-size:30px; font-family: monospace\">+</span>",
		"response": null,
		"trial_part": "fixation",
		"trial_type": "html-keyboard-response",
		"trial_index": 180,
		"time_elapsed": 435468,
		"internal_node_id": "0.0-3.0-0.139-0.139"
	},
	{
		"rt": 992,
		"stimulus": "../audio/16-1-masc.mp3",
		"response": " ",
		"word": "Eu",
		"trial_type": "audio-keyboard-response",
		"trial_index": 181,
		"time_elapsed": 436955,
		"internal_node_id": "0.0-3.0-1.139"
	},
	{
		"rt": 979,
		"stimulus": "../audio/16-2-masc.mp3",
		"response": " ",
		"word": "nunca",
		"trial_type": "audio-keyboard-response",
		"trial_index": 182,
		"time_elapsed": 438257,
		"internal_node_id": "0.0-3.0-1.140"
	},
	{
		"rt": 960,
		"stimulus": "../audio/16-3-masc.mp3",
		"response": " ",
		"word": "conheci",
		"trial_type": "audio-keyboard-response",
		"trial_index": 183,
		"time_elapsed": 439594,
		"internal_node_id": "0.0-3.0-1.141"
	},
	{
		"rt": 829,
		"stimulus": "../audio/16-4-masc.mp3",
		"response": " ",
		"word": "um",
		"trial_type": "audio-keyboard-response",
		"trial_index": 184,
		"time_elapsed": 440741,
		"internal_node_id": "0.0-3.0-1.142"
	},
	{
		"rt": 1200,
		"stimulus": "../audio/16-5-masc.mp3",
		"response": " ",
		"word": "general",
		"trial_type": "audio-keyboard-response",
		"trial_index": 185,
		"time_elapsed": 442291,
		"internal_node_id": "0.0-3.0-1.143"
	},
	{
		"rt": 1200,
		"stimulus": "../audio/16-6-masc.mp3",
		"response": " ",
		"word": "do",
		"trial_type": "audio-keyboard-response",
		"trial_index": 186,
		"time_elapsed": 443797,
		"internal_node_id": "0.0-3.0-1.144"
	},
	{
		"rt": 1499,
		"stimulus": "../audio/16-7-masc.mp3",
		"response": " ",
		"word": "exército.",
		"trial_type": "audio-keyboard-response",
		"trial_index": 187,
		"time_elapsed": 445646,
		"internal_node_id": "0.0-3.0-1.145"
	},
	{
		"rt": null,
		"stimulus": "<span style= \"font-size:30px; font-family: monospace\">+</span>",
		"response": null,
		"trial_part": "fixation",
		"trial_type": "html-keyboard-response",
		"trial_index": 188,
		"time_elapsed": 446905,
		"internal_node_id": "0.0-3.0-0.146-0.146"
	},
	{
		"rt": 739,
		"stimulus": "../audio/20-1-masc.mp3",
		"response": " ",
		"word": "O",
		"trial_type": "audio-keyboard-response",
		"trial_index": 189,
		"time_elapsed": 448218,
		"internal_node_id": "0.0-3.0-1.146"
	},
	{
		"rt": 931,
		"stimulus": "../audio/20-2-masc.mp3",
		"response": " ",
		"word": "colega",
		"trial_type": "audio-keyboard-response",
		"trial_index": 190,
		"time_elapsed": 449513,
		"internal_node_id": "0.0-3.0-1.147"
	},
	{
		"rt": 920,
		"stimulus": "../audio/20-3-masc.mp3",
		"response": " ",
		"word": "parecia",
		"trial_type": "audio-keyboard-response",
		"trial_index": 191,
		"time_elapsed": 450774,
		"internal_node_id": "0.0-3.0-1.148"
	},
	{
		"rt": 1088,
		"stimulus": "../audio/20-4-masc.mp3",
		"response": " ",
		"word": "muito",
		"trial_type": "audio-keyboard-response",
		"trial_index": 192,
		"time_elapsed": 452204,
		"internal_node_id": "0.0-3.0-1.149"
	},
	{
		"rt": 1288,
		"stimulus": "../audio/20-5-masc.mp3",
		"response": " ",
		"word": "gripado",
		"trial_type": "audio-keyboard-response",
		"trial_index": 193,
		"time_elapsed": 453849,
		"internal_node_id": "0.0-3.0-1.150"
	},
	{
		"rt": 941,
		"stimulus": "../audio/20-6-masc.mp3",
		"response": " ",
		"word": "no",
		"trial_type": "audio-keyboard-response",
		"trial_index": 194,
		"time_elapsed": 455148,
		"internal_node_id": "0.0-3.0-1.151"
	},
	{
		"rt": 960,
		"stimulus": "../audio/20-7-masc.mp3",
		"response": " ",
		"word": "dia",
		"trial_type": "audio-keyboard-response",
		"trial_index": 195,
		"time_elapsed": 456485,
		"internal_node_id": "0.0-3.0-1.152"
	},
	{
		"rt": 1229,
		"stimulus": "../audio/20-8-masc.mp3",
		"response": " ",
		"word": "anterior.",
		"trial_type": "audio-keyboard-response",
		"trial_index": 196,
		"time_elapsed": 458106,
		"internal_node_id": "0.0-3.0-1.153"
	},
	{
		"rt": 4301,
		"stimulus": "<span style=\"font-size:25px; font-family: monospace\">O colega parecia muito gripado?</span>",
		"response": "s",
		"question": "O colega parecia muito gripado?",
		"answer": "null",
		"trial": "exp-sent",
		"trial_type": "html-keyboard-response",
		"trial_index": 197,
		"time_elapsed": 462663,
		"internal_node_id": "0.0-3.0-2.153-0.153",
		"accuracy": false
	},
	{
		"rt": null,
		"stimulus": "<span style= \"font-size:30px; font-family: monospace\">+</span>",
		"response": null,
		"trial_part": "fixation",
		"trial_type": "html-keyboard-response",
		"trial_index": 198,
		"time_elapsed": 464167,
		"internal_node_id": "0.0-3.0-0.154-0.154"
	},
	{
		"rt": 691,
		"stimulus": "../audio/63-1-masc.mp3",
		"response": " ",
		"word": "A",
		"trial_type": "audio-keyboard-response",
		"trial_index": 199,
		"time_elapsed": 467339,
		"internal_node_id": "0.0-3.0-1.154"
	},
	{
		"rt": 949,
		"stimulus": "../audio/63-2-masc.mp3",
		"response": " ",
		"word": "chuva",
		"trial_type": "audio-keyboard-response",
		"trial_index": 200,
		"time_elapsed": 468626,
		"internal_node_id": "0.0-3.0-1.155"
	},
	{
		"rt": 789,
		"stimulus": "../audio/63-3-masc.mp3",
		"response": " ",
		"word": "entrou",
		"trial_type": "audio-keyboard-response",
		"trial_index": 201,
		"time_elapsed": 469749,
		"internal_node_id": "0.0-3.0-1.156"
	},
	{
		"rt": 691,
		"stimulus": "../audio/63-4-masc.mp3",
		"response": " ",
		"word": "pela",
		"trial_type": "audio-keyboard-response",
		"trial_index": 202,
		"time_elapsed": 470747,
		"internal_node_id": "0.0-3.0-1.157"
	},
	{
		"rt": 1171,
		"stimulus": "../audio/63-5-masc.mp3",
		"response": " ",
		"word": "abertura",
		"trial_type": "audio-keyboard-response",
		"trial_index": 203,
		"time_elapsed": 472310,
		"internal_node_id": "0.0-3.0-1.158"
	},
	{
		"rt": 829,
		"stimulus": "../audio/63-6-masc.mp3",
		"response": " ",
		"word": "na",
		"trial_type": "audio-keyboard-response",
		"trial_index": 204,
		"time_elapsed": 473466,
		"internal_node_id": "0.0-3.0-1.159"
	},
	{
		"rt": 1251,
		"stimulus": "../audio/63-7-masc.mp3",
		"response": " ",
		"word": "janela.",
		"trial_type": "audio-keyboard-response",
		"trial_index": 205,
		"time_elapsed": 475146,
		"internal_node_id": "0.0-3.0-1.160"
	},
	{
		"rt": null,
		"stimulus": "<span style= \"font-size:30px; font-family: monospace\">+</span>",
		"response": null,
		"trial_part": "fixation",
		"trial_type": "html-keyboard-response",
		"trial_index": 206,
		"time_elapsed": 476424,
		"internal_node_id": "0.0-3.0-0.161-0.161"
	},
	{
		"rt": 1181,
		"stimulus": "../audio/62-1-masc.mp3",
		"response": " ",
		"word": "As",
		"trial_type": "audio-keyboard-response",
		"trial_index": 207,
		"time_elapsed": 477995,
		"internal_node_id": "0.0-3.0-1.161"
	},
	{
		"rt": 1611,
		"stimulus": "../audio/62-2-masc.mp3",
		"response": " ",
		"word": "artesãs",
		"trial_type": "audio-keyboard-response",
		"trial_index": 208,
		"time_elapsed": 479951,
		"internal_node_id": "0.0-3.0-1.162"
	},
	{
		"rt": 1080,
		"stimulus": "../audio/62-3-masc.mp3",
		"response": " ",
		"word": "gostam",
		"trial_type": "audio-keyboard-response",
		"trial_index": 209,
		"time_elapsed": 481352,
		"internal_node_id": "0.0-3.0-1.163"
	},
	{
		"rt": 829,
		"stimulus": "../audio/62-4-masc.mp3",
		"response": " ",
		"word": "de",
		"trial_type": "audio-keyboard-response",
		"trial_index": 210,
		"time_elapsed": 482494,
		"internal_node_id": "0.0-3.0-1.164"
	},
	{
		"rt": 1280,
		"stimulus": "../audio/62-5-masc.mp3",
		"response": " ",
		"word": "maquiagem",
		"trial_type": "audio-keyboard-response",
		"trial_index": 211,
		"time_elapsed": 484520,
		"internal_node_id": "0.0-3.0-1.165"
	},
	{
		"rt": 688,
		"stimulus": "../audio/62-6-masc.mp3",
		"response": " ",
		"word": "e",
		"trial_type": "audio-keyboard-response",
		"trial_index": 212,
		"time_elapsed": 485564,
		"internal_node_id": "0.0-3.0-1.166"
	},
	{
		"rt": 640,
		"stimulus": "../audio/62-7-masc.mp3",
		"response": " ",
		"word": "de",
		"trial_type": "audio-keyboard-response",
		"trial_index": 213,
		"time_elapsed": 486513,
		"internal_node_id": "0.0-3.0-1.167"
	},
	{
		"rt": 560,
		"stimulus": "../audio/62-8-masc.mp3",
		"response": " ",
		"word": "crochê.",
		"trial_type": "audio-keyboard-response",
		"trial_index": 214,
		"time_elapsed": 487396,
		"internal_node_id": "0.0-3.0-1.168"
	},
	{
		"rt": null,
		"stimulus": "<span style= \"font-size:30px; font-family: monospace\">+</span>",
		"response": null,
		"trial_part": "fixation",
		"trial_type": "html-keyboard-response",
		"trial_index": 215,
		"time_elapsed": 488657,
		"internal_node_id": "0.0-3.0-0.169-0.169"
	},
	{
		"rt": 1149,
		"stimulus": "../audio/61-1-fem.mp3",
		"response": " ",
		"word": "Aquele",
		"trial_type": "audio-keyboard-response",
		"trial_index": 216,
		"time_elapsed": 490294,
		"internal_node_id": "0.0-3.0-1.169"
	},
	{
		"rt": 800,
		"stimulus": "../audio/61-2-fem.mp3",
		"response": " ",
		"word": "senhor",
		"trial_type": "audio-keyboard-response",
		"trial_index": 217,
		"time_elapsed": 491448,
		"internal_node_id": "0.0-3.0-1.170"
	},
	{
		"rt": 592,
		"stimulus": "../audio/61-3-fem.mp3",
		"response": " ",
		"word": "é",
		"trial_type": "audio-keyboard-response",
		"trial_index": 218,
		"time_elapsed": 492357,
		"internal_node_id": "0.0-3.0-1.171"
	},
	{
		"rt": 720,
		"stimulus": "../audio/61-4-fem.mp3",
		"response": " ",
		"word": "muito",
		"trial_type": "audio-keyboard-response",
		"trial_index": 219,
		"time_elapsed": 493431,
		"internal_node_id": "0.0-3.0-1.172"
	},
	{
		"rt": 669,
		"stimulus": "../audio/61-5-fem.mp3",
		"response": " ",
		"word": "sovina",
		"trial_type": "audio-keyboard-response",
		"trial_index": 220,
		"time_elapsed": 494527,
		"internal_node_id": "0.0-3.0-1.173"
	},
	{
		"rt": 1181,
		"stimulus": "../audio/61-6-fem.mp3",
		"response": " ",
		"word": "e",
		"trial_type": "audio-keyboard-response",
		"trial_index": 221,
		"time_elapsed": 496027,
		"internal_node_id": "0.0-3.0-1.174"
	},
	{
		"rt": 1680,
		"stimulus": "../audio/61-7-fem.mp3",
		"response": " ",
		"word": "inflexível.",
		"trial_type": "audio-keyboard-response",
		"trial_index": 222,
		"time_elapsed": 498070,
		"internal_node_id": "0.0-3.0-1.175"
	},
	{
		"rt": null,
		"stimulus": "<span style= \"font-size:30px; font-family: monospace\">+</span>",
		"response": null,
		"trial_part": "fixation",
		"trial_type": "html-keyboard-response",
		"trial_index": 223,
		"time_elapsed": 499350,
		"internal_node_id": "0.0-3.0-0.176-0.176"
	},
	{
		"rt": 720,
		"stimulus": "../audio/64-1-fem.mp3",
		"response": " ",
		"word": "O",
		"trial_type": "audio-keyboard-response",
		"trial_index": 224,
		"time_elapsed": 500488,
		"internal_node_id": "0.0-3.0-1.176"
	},
	{
		"rt": 800,
		"stimulus": "../audio/64-2-fem.mp3",
		"response": " ",
		"word": "dia",
		"trial_type": "audio-keyboard-response",
		"trial_index": 225,
		"time_elapsed": 501595,
		"internal_node_id": "0.0-3.0-1.177"
	},
	{
		"rt": 960,
		"stimulus": "../audio/64-3-fem.mp3",
		"response": " ",
		"word": "começou",
		"trial_type": "audio-keyboard-response",
		"trial_index": 226,
		"time_elapsed": 502911,
		"internal_node_id": "0.0-3.0-1.178"
	},
	{
		"rt": 701,
		"stimulus": "../audio/64-4-fem.mp3",
		"response": " ",
		"word": "com",
		"trial_type": "audio-keyboard-response",
		"trial_index": 227,
		"time_elapsed": 503982,
		"internal_node_id": "0.0-3.0-1.179"
	},
	{
		"rt": 749,
		"stimulus": "../audio/64-5-fem.mp3",
		"response": " ",
		"word": "garoa",
		"trial_type": "audio-keyboard-response",
		"trial_index": 228,
		"time_elapsed": 505142,
		"internal_node_id": "0.0-3.0-1.180"
	},
	{
		"rt": 1080,
		"stimulus": "../audio/64-6-fem.mp3",
		"response": " ",
		"word": "gelada",
		"trial_type": "audio-keyboard-response",
		"trial_index": 229,
		"time_elapsed": 506616,
		"internal_node_id": "0.0-3.0-1.181"
	},
	{
		"rt": 691,
		"stimulus": "../audio/64-7-fem.mp3",
		"response": " ",
		"word": "e",
		"trial_type": "audio-keyboard-response",
		"trial_index": 230,
		"time_elapsed": 507659,
		"internal_node_id": "0.0-3.0-1.182"
	},
	{
		"rt": 1072,
		"stimulus": "../audio/64-8-fem.mp3",
		"response": " ",
		"word": "leve.",
		"trial_type": "audio-keyboard-response",
		"trial_index": 231,
		"time_elapsed": 509080,
		"internal_node_id": "0.0-3.0-1.183"
	},
	{
		"rt": null,
		"stimulus": "<span style= \"font-size:30px; font-family: monospace\">+</span>",
		"response": null,
		"trial_part": "fixation",
		"trial_type": "html-keyboard-response",
		"trial_index": 232,
		"time_elapsed": 510343,
		"internal_node_id": "0.0-3.0-0.184-0.184"
	},
	{
		"rt": 229,
		"stimulus": "../audio/65-1-masc.mp3",
		"response": " ",
		"word": "O",
		"trial_type": "audio-keyboard-response",
		"trial_index": 233,
		"time_elapsed": 511228,
		"internal_node_id": "0.0-3.0-1.184"
	},
	{
		"rt": 989,
		"stimulus": "../audio/65-2-masc.mp3",
		"response": " ",
		"word": "fantasma",
		"trial_type": "audio-keyboard-response",
		"trial_index": 234,
		"time_elapsed": 512563,
		"internal_node_id": "0.0-3.0-1.185"
	},
	{
		"rt": 909,
		"stimulus": "../audio/65-3-masc.mp3",
		"response": " ",
		"word": "veio",
		"trial_type": "audio-keyboard-response",
		"trial_index": 235,
		"time_elapsed": 513856,
		"internal_node_id": "0.0-3.0-1.186"
	},
	{
		"rt": 821,
		"stimulus": "../audio/65-4-masc.mp3",
		"response": " ",
		"word": "da",
		"trial_type": "audio-keyboard-response",
		"trial_index": 236,
		"time_elapsed": 514987,
		"internal_node_id": "0.0-3.0-1.187"
	},
	{
		"rt": 1269,
		"stimulus": "../audio/65-5-masc.mp3",
		"response": " ",
		"word": "escuridão",
		"trial_type": "audio-keyboard-response",
		"trial_index": 237,
		"time_elapsed": 516688,
		"internal_node_id": "0.0-3.0-1.188"
	},
	{
		"rt": 731,
		"stimulus": "../audio/65-6-masc.mp3",
		"response": " ",
		"word": "do",
		"trial_type": "audio-keyboard-response",
		"trial_index": 238,
		"time_elapsed": 517837,
		"internal_node_id": "0.0-3.0-1.189"
	},
	{
		"rt": 891,
		"stimulus": "../audio/65-7-masc.mp3",
		"response": " ",
		"word": "armário.",
		"trial_type": "audio-keyboard-response",
		"trial_index": 239,
		"time_elapsed": 519174,
		"internal_node_id": "0.0-3.0-1.190"
	},
	{
		"rt": 3630,
		"stimulus": "<span style=\"font-size:25px; font-family: monospace\">O fantasma veio da escuridão do armário?</span>",
		"response": "s",
		"question": "O fantasma veio da escuridão do armário?",
		"answer": "null",
		"trial": "exp-sent",
		"trial_type": "html-keyboard-response",
		"trial_index": 240,
		"time_elapsed": 523059,
		"internal_node_id": "0.0-3.0-2.190-0.190",
		"accuracy": false
	},
	{
		"rt": null,
		"stimulus": "<span style= \"font-size:30px; font-family: monospace\">+</span>",
		"response": null,
		"trial_part": "fixation",
		"trial_type": "html-keyboard-response",
		"trial_index": 241,
		"time_elapsed": 524570,
		"internal_node_id": "0.0-3.0-0.191-0.191"
	},
	{
		"rt": 880,
		"stimulus": "../audio/49-1-fem.mp3",
		"response": " ",
		"word": "Eu",
		"trial_type": "audio-keyboard-response",
		"trial_index": 242,
		"time_elapsed": 525842,
		"internal_node_id": "0.0-3.0-1.191"
	},
	{
		"rt": 811,
		"stimulus": "../audio/49-2-fem.mp3",
		"response": " ",
		"word": "quero",
		"trial_type": "audio-keyboard-response",
		"trial_index": 243,
		"time_elapsed": 527029,
		"internal_node_id": "0.0-3.0-1.192"
	},
	{
		"rt": 920,
		"stimulus": "../audio/49-3-fem.mp3",
		"response": " ",
		"word": "um",
		"trial_type": "audio-keyboard-response",
		"trial_index": 244,
		"time_elapsed": 528266,
		"internal_node_id": "0.0-3.0-1.193"
	},
	{
		"rt": 1080,
		"stimulus": "../audio/49-4-fem.mp3",
		"response": " ",
		"word": "lanche",
		"trial_type": "audio-keyboard-response",
		"trial_index": 245,
		"time_elapsed": 529675,
		"internal_node_id": "0.0-3.0-1.194"
	},
	{
		"rt": 968,
		"stimulus": "../audio/49-5-fem.mp3",
		"response": " ",
		"word": "duplo",
		"trial_type": "audio-keyboard-response",
		"trial_index": 246,
		"time_elapsed": 530966,
		"internal_node_id": "0.0-3.0-1.195"
	},
	{
		"rt": 720,
		"stimulus": "../audio/49-6-fem.mp3",
		"response": " ",
		"word": "e",
		"trial_type": "audio-keyboard-response",
		"trial_index": 247,
		"time_elapsed": 531999,
		"internal_node_id": "0.0-3.0-1.196"
	},
	{
		"rt": 829,
		"stimulus": "../audio/49-7-fem.mp3",
		"response": " ",
		"word": "um",
		"trial_type": "audio-keyboard-response",
		"trial_index": 248,
		"time_elapsed": 533179,
		"internal_node_id": "0.0-3.0-1.197"
	},
	{
		"rt": 880,
		"stimulus": "../audio/49-8-fem.mp3",
		"response": " ",
		"word": "suco.",
		"trial_type": "audio-keyboard-response",
		"trial_index": 249,
		"time_elapsed": 536549,
		"internal_node_id": "0.0-3.0-1.198"
	},
	{
		"rt": null,
		"stimulus": "<span style= \"font-size:30px; font-family: monospace\">+</span>",
		"response": null,
		"trial_part": "fixation",
		"trial_type": "html-keyboard-response",
		"trial_index": 250,
		"time_elapsed": 537821,
		"internal_node_id": "0.0-3.0-0.199-0.199"
	},
	{
		"rt": 571,
		"stimulus": "../audio/46-1-masc.mp3",
		"response": " ",
		"word": "Meu",
		"trial_type": "audio-keyboard-response",
		"trial_index": 251,
		"time_elapsed": 538785,
		"internal_node_id": "0.0-3.0-1.199"
	},
	{
		"rt": 709,
		"stimulus": "../audio/46-2-masc.mp3",
		"response": " ",
		"word": "primo",
		"trial_type": "audio-keyboard-response",
		"trial_index": 252,
		"time_elapsed": 539817,
		"internal_node_id": "0.0-3.0-1.200"
	},
	{
		"rt": 931,
		"stimulus": "../audio/46-3-masc.mp3",
		"response": " ",
		"word": "estava",
		"trial_type": "audio-keyboard-response",
		"trial_index": 253,
		"time_elapsed": 541101,
		"internal_node_id": "0.0-3.0-1.201"
	},
	{
		"rt": 859,
		"stimulus": "../audio/46-4-masc.mp3",
		"response": " ",
		"word": "muito",
		"trial_type": "audio-keyboard-response",
		"trial_index": 254,
		"time_elapsed": 542300,
		"internal_node_id": "0.0-3.0-1.202"
	},
	{
		"rt": 1040,
		"stimulus": "../audio/46-5-masc.mp3",
		"response": " ",
		"word": "deprimido",
		"trial_type": "audio-keyboard-response",
		"trial_index": 255,
		"time_elapsed": 543704,
		"internal_node_id": "0.0-3.0-1.203"
	},
	{
		"rt": 821,
		"stimulus": "../audio/46-6-masc.mp3",
		"response": " ",
		"word": "no",
		"trial_type": "audio-keyboard-response",
		"trial_index": 256,
		"time_elapsed": 544946,
		"internal_node_id": "0.0-3.0-1.204"
	},
	{
		"rt": 1149,
		"stimulus": "../audio/46-7-masc.mp3",
		"response": " ",
		"word": "inverno.",
		"trial_type": "audio-keyboard-response",
		"trial_index": 257,
		"time_elapsed": 546412,
		"internal_node_id": "0.0-3.0-1.205"
	},
	{
		"rt": null,
		"stimulus": "<span style= \"font-size:30px; font-family: monospace\">+</span>",
		"response": null,
		"trial_part": "fixation",
		"trial_type": "html-keyboard-response",
		"trial_index": 258,
		"time_elapsed": 547692,
		"internal_node_id": "0.0-3.0-0.206-0.206"
	},
	{
		"rt": 91,
		"stimulus": "../audio/47-1-fem.mp3",
		"response": " ",
		"word": "O",
		"trial_type": "audio-keyboard-response",
		"trial_index": 259,
		"time_elapsed": 548236,
		"internal_node_id": "0.0-3.0-1.206"
	},
	{
		"rt": 829,
		"stimulus": "../audio/47-2-fem.mp3",
		"response": " ",
		"word": "tio",
		"trial_type": "audio-keyboard-response",
		"trial_index": 260,
		"time_elapsed": 549389,
		"internal_node_id": "0.0-3.0-1.207"
	},
	{
		"rt": 1069,
		"stimulus": "../audio/47-3-fem.mp3",
		"response": " ",
		"word": "recusou",
		"trial_type": "audio-keyboard-response",
		"trial_index": 261,
		"time_elapsed": 550802,
		"internal_node_id": "0.0-3.0-1.208"
	},
	{
		"rt": 651,
		"stimulus": "../audio/47-4-fem.mp3",
		"response": " ",
		"word": "a",
		"trial_type": "audio-keyboard-response",
		"trial_index": 262,
		"time_elapsed": 551772,
		"internal_node_id": "0.0-3.0-1.209"
	},
	{
		"rt": 589,
		"stimulus": "../audio/47-5-fem.mp3",
		"response": " ",
		"word": "sobremesa",
		"trial_type": "audio-keyboard-response",
		"trial_index": 263,
		"time_elapsed": 552808,
		"internal_node_id": "0.0-3.0-1.210"
	},
	{
		"rt": 768,
		"stimulus": "../audio/47-6-fem.mp3",
		"response": " ",
		"word": "no",
		"trial_type": "audio-keyboard-response",
		"trial_index": 264,
		"time_elapsed": 554044,
		"internal_node_id": "0.0-3.0-1.211"
	},
	{
		"rt": 1141,
		"stimulus": "../audio/47-7-fem.mp3",
		"response": " ",
		"word": "almoço.",
		"trial_type": "audio-keyboard-response",
		"trial_index": 265,
		"time_elapsed": 555546,
		"internal_node_id": "0.0-3.0-1.212"
	},
	{
		"rt": null,
		"stimulus": "<span style= \"font-size:30px; font-family: monospace\">+</span>",
		"response": null,
		"trial_part": "fixation",
		"trial_type": "html-keyboard-response",
		"trial_index": 266,
		"time_elapsed": 556807,
		"internal_node_id": "0.0-3.0-0.213-0.213"
	},
	{
		"rt": 259,
		"stimulus": "../audio/48-1-masc.mp3",
		"response": " ",
		"word": "Ela",
		"trial_type": "audio-keyboard-response",
		"trial_index": 267,
		"time_elapsed": 557525,
		"internal_node_id": "0.0-3.0-1.213"
	},
	{
		"rt": 1131,
		"stimulus": "../audio/48-2-masc.mp3",
		"response": " ",
		"word": "come",
		"trial_type": "audio-keyboard-response",
		"trial_index": 268,
		"time_elapsed": 559075,
		"internal_node_id": "0.0-3.0-1.214"
	},
	{
		"rt": 1051,
		"stimulus": "../audio/48-3-masc.mp3",
		"response": " ",
		"word": "feijão",
		"trial_type": "audio-keyboard-response",
		"trial_index": 269,
		"time_elapsed": 560440,
		"internal_node_id": "0.0-3.0-1.215"
	},
	{
		"rt": 840,
		"stimulus": "../audio/48-4-masc.mp3",
		"response": " ",
		"word": "com",
		"trial_type": "audio-keyboard-response",
		"trial_index": 270,
		"time_elapsed": 561646,
		"internal_node_id": "0.0-3.0-1.216"
	},
	{
		"rt": 989,
		"stimulus": "../audio/48-5-masc.mp3",
		"response": " ",
		"word": "arroz",
		"trial_type": "audio-keyboard-response",
		"trial_index": 271,
		"time_elapsed": 563012,
		"internal_node_id": "0.0-3.0-1.217"
	},
	{
		"rt": 739,
		"stimulus": "../audio/48-6-masc.mp3",
		"response": " ",
		"word": "todos",
		"trial_type": "audio-keyboard-response",
		"trial_index": 272,
		"time_elapsed": 564259,
		"internal_node_id": "0.0-3.0-1.218"
	},
	{
		"rt": 749,
		"stimulus": "../audio/48-7-masc.mp3",
		"response": " ",
		"word": "os",
		"trial_type": "audio-keyboard-response",
		"trial_index": 273,
		"time_elapsed": 565351,
		"internal_node_id": "0.0-3.0-1.219"
	},
	{
		"rt": 731,
		"stimulus": "../audio/48-8-masc.mp3",
		"response": " ",
		"word": "dias.",
		"trial_type": "audio-keyboard-response",
		"trial_index": 274,
		"time_elapsed": 566466,
		"internal_node_id": "0.0-3.0-1.220"
	},
	{
		"rt": null,
		"stimulus": "<span style= \"font-size:30px; font-family: monospace\">+</span>",
		"response": null,
		"trial_part": "fixation",
		"trial_type": "html-keyboard-response",
		"trial_index": 275,
		"time_elapsed": 567723,
		"internal_node_id": "0.0-3.0-0.221-0.221"
	},
	{
		"rt": 229,
		"stimulus": "../audio/50-1-masc.mp3",
		"response": " ",
		"word": "O",
		"trial_type": "audio-keyboard-response",
		"trial_index": 276,
		"time_elapsed": 568470,
		"internal_node_id": "0.0-3.0-1.221"
	},
	{
		"rt": 819,
		"stimulus": "../audio/50-2-masc.mp3",
		"response": " ",
		"word": "pássaro",
		"trial_type": "audio-keyboard-response",
		"trial_index": 277,
		"time_elapsed": 569620,
		"internal_node_id": "0.0-3.0-1.222"
	},
	{
		"rt": 891,
		"stimulus": "../audio/50-3-masc.mp3",
		"response": " ",
		"word": "fugiu",
		"trial_type": "audio-keyboard-response",
		"trial_index": 278,
		"time_elapsed": 570860,
		"internal_node_id": "0.0-3.0-1.223"
	},
	{
		"rt": 691,
		"stimulus": "../audio/50-4-masc.mp3",
		"response": " ",
		"word": "da",
		"trial_type": "audio-keyboard-response",
		"trial_index": 279,
		"time_elapsed": 571871,
		"internal_node_id": "0.0-3.0-1.224"
	},
	{
		"rt": 741,
		"stimulus": "../audio/50-5-masc.mp3",
		"response": " ",
		"word": "gaiola",
		"trial_type": "audio-keyboard-response",
		"trial_index": 280,
		"time_elapsed": 572998,
		"internal_node_id": "0.0-3.0-1.225"
	},
	{
		"rt": 760,
		"stimulus": "../audio/50-6-masc.mp3",
		"response": " ",
		"word": "pela",
		"trial_type": "audio-keyboard-response",
		"trial_index": 281,
		"time_elapsed": 574158,
		"internal_node_id": "0.0-3.0-1.226"
	},
	{
		"rt": 1000,
		"stimulus": "../audio/50-7-masc.mp3",
		"response": " ",
		"word": "portinhola.",
		"trial_type": "audio-keyboard-response",
		"trial_index": 282,
		"time_elapsed": 575558,
		"internal_node_id": "0.0-3.0-1.227"
	},
	{
		"rt": 4461,
		"stimulus": "<span style=\"font-size:25px; font-family: monospace\">O pássaro fugiu da gaiola?</span>",
		"response": "s",
		"question": "O pássaro fugiu da gaiola?",
		"answer": "null",
		"trial": "exp-sent",
		"trial_type": "html-keyboard-response",
		"trial_index": 283,
		"time_elapsed": 580278,
		"internal_node_id": "0.0-3.0-2.227-0.227",
		"accuracy": false
	},
	{
		"rt": null,
		"stimulus": "<span style= \"font-size:30px; font-family: monospace\">+</span>",
		"response": null,
		"trial_part": "fixation",
		"trial_type": "html-keyboard-response",
		"trial_index": 284,
		"time_elapsed": 581794,
		"internal_node_id": "0.0-3.0-0.228-0.228"
	},
	{
		"rt": 709,
		"stimulus": "../audio/37-1-masc.mp3",
		"response": " ",
		"word": "Eu",
		"trial_type": "audio-keyboard-response",
		"trial_index": 285,
		"time_elapsed": 582897,
		"internal_node_id": "0.0-3.0-1.228"
	},
	{
		"rt": 699,
		"stimulus": "../audio/37-2-masc.mp3",
		"response": " ",
		"word": "adoro",
		"trial_type": "audio-keyboard-response",
		"trial_index": 286,
		"time_elapsed": 584006,
		"internal_node_id": "0.0-3.0-1.229"
	},
	{
		"rt": 829,
		"stimulus": "../audio/37-3-masc.mp3",
		"response": " ",
		"word": "suco",
		"trial_type": "audio-keyboard-response",
		"trial_index": 287,
		"time_elapsed": 585143,
		"internal_node_id": "0.0-3.0-1.230"
	},
	{
		"rt": 771,
		"stimulus": "../audio/37-4-masc.mp3",
		"response": " ",
		"word": "de",
		"trial_type": "audio-keyboard-response",
		"trial_index": 288,
		"time_elapsed": 586233,
		"internal_node_id": "0.0-3.0-1.231"
	},
	{
		"rt": 960,
		"stimulus": "../audio/37-5-masc.mp3",
		"response": " ",
		"word": "manga",
		"trial_type": "audio-keyboard-response",
		"trial_index": 289,
		"time_elapsed": 587525,
		"internal_node_id": "0.0-3.0-1.232"
	},
	{
		"rt": 720,
		"stimulus": "../audio/37-6-masc.mp3",
		"response": " ",
		"word": "com",
		"trial_type": "audio-keyboard-response",
		"trial_index": 290,
		"time_elapsed": 588572,
		"internal_node_id": "0.0-3.0-1.233"
	},
	{
		"rt": 949,
		"stimulus": "../audio/37-7-masc.mp3",
		"response": " ",
		"word": "hortelã.",
		"trial_type": "audio-keyboard-response",
		"trial_index": 291,
		"time_elapsed": 589881,
		"internal_node_id": "0.0-3.0-1.234"
	},
	{
		"rt": null,
		"stimulus": "<span style= \"font-size:30px; font-family: monospace\">+</span>",
		"response": null,
		"trial_part": "fixation",
		"trial_type": "html-keyboard-response",
		"trial_index": 292,
		"time_elapsed": 591137,
		"internal_node_id": "0.0-3.0-0.235-0.235"
	},
	{
		"rt": 861,
		"stimulus": "../audio/36-1-masc.mp3",
		"response": " ",
		"word": "Meu",
		"trial_type": "audio-keyboard-response",
		"trial_index": 293,
		"time_elapsed": 592395,
		"internal_node_id": "0.0-3.0-1.235"
	},
	{
		"rt": 768,
		"stimulus": "../audio/36-2-masc.mp3",
		"response": " ",
		"word": "tio",
		"trial_type": "audio-keyboard-response",
		"trial_index": 294,
		"time_elapsed": 593489,
		"internal_node_id": "0.0-3.0-1.236"
	},
	{
		"rt": 941,
		"stimulus": "../audio/36-3-masc.mp3",
		"response": " ",
		"word": "comprou",
		"trial_type": "audio-keyboard-response",
		"trial_index": 295,
		"time_elapsed": 594789,
		"internal_node_id": "0.0-3.0-1.237"
	},
	{
		"rt": 760,
		"stimulus": "../audio/36-4-masc.mp3",
		"response": " ",
		"word": "um",
		"trial_type": "audio-keyboard-response",
		"trial_index": 296,
		"time_elapsed": 595867,
		"internal_node_id": "0.0-3.0-1.238"
	},
	{
		"rt": 1019,
		"stimulus": "../audio/36-5-masc.mp3",
		"response": " ",
		"word": "filtro",
		"trial_type": "audio-keyboard-response",
		"trial_index": 297,
		"time_elapsed": 597211,
		"internal_node_id": "0.0-3.0-1.239"
	},
	{
		"rt": 880,
		"stimulus": "../audio/36-6-masc.mp3",
		"response": " ",
		"word": "de",
		"trial_type": "audio-keyboard-response",
		"trial_index": 298,
		"time_elapsed": 598406,
		"internal_node_id": "0.0-3.0-1.240"
	},
	{
		"rt": 992,
		"stimulus": "../audio/36-7-masc.mp3",
		"response": " ",
		"word": "água",
		"trial_type": "audio-keyboard-response",
		"trial_index": 299,
		"time_elapsed": 599717,
		"internal_node_id": "0.0-3.0-1.241"
	},
	{
		"rt": 1101,
		"stimulus": "../audio/36-8-masc.mp3",
		"response": " ",
		"word": "hoje",
		"trial_type": "audio-keyboard-response",
		"trial_index": 300,
		"time_elapsed": 601141,
		"internal_node_id": "0.0-3.0-1.242"
	},
	{
		"rt": 1069,
		"stimulus": "../audio/36-9-masc.mp3",
		"response": " ",
		"word": "cedo.",
		"trial_type": "audio-keyboard-response",
		"trial_index": 301,
		"time_elapsed": 602523,
		"internal_node_id": "0.0-3.0-1.243"
	},
	{
		"rt": null,
		"stimulus": "<span style= \"font-size:30px; font-family: monospace\">+</span>",
		"response": null,
		"trial_part": "fixation",
		"trial_type": "html-keyboard-response",
		"trial_index": 302,
		"time_elapsed": 603802,
		"internal_node_id": "0.0-3.0-0.244-0.244"
	},
	{
		"rt": 1501,
		"stimulus": "../audio/38-1-fem.mp3",
		"response": " ",
		"word": "A",
		"trial_type": "audio-keyboard-response",
		"trial_index": 303,
		"time_elapsed": 607707,
		"internal_node_id": "0.0-3.0-1.244"
	},
	{
		"rt": 891,
		"stimulus": "../audio/38-2-fem.mp3",
		"response": " ",
		"word": "empresa",
		"trial_type": "audio-keyboard-response",
		"trial_index": 304,
		"time_elapsed": 609039,
		"internal_node_id": "0.0-3.0-1.245"
	},
	{
		"rt": 920,
		"stimulus": "../audio/38-3-fem.mp3",
		"response": " ",
		"word": "criou",
		"trial_type": "audio-keyboard-response",
		"trial_index": 305,
		"time_elapsed": 610299,
		"internal_node_id": "0.0-3.0-1.246"
	},
	{
		"rt": 789,
		"stimulus": "../audio/38-4-fem.mp3",
		"response": " ",
		"word": "a",
		"trial_type": "audio-keyboard-response",
		"trial_index": 306,
		"time_elapsed": 611402,
		"internal_node_id": "0.0-3.0-1.247"
	},
	{
		"rt": 1181,
		"stimulus": "../audio/38-5-fem.mp3",
		"response": " ",
		"word": "patente",
		"trial_type": "audio-keyboard-response",
		"trial_index": 307,
		"time_elapsed": 612957,
		"internal_node_id": "0.0-3.0-1.248"
	},
	{
		"rt": 600,
		"stimulus": "../audio/38-6-fem.mp3",
		"response": " ",
		"word": "da",
		"trial_type": "audio-keyboard-response",
		"trial_index": 308,
		"time_elapsed": 614046,
		"internal_node_id": "0.0-3.0-1.249"
	},
	{
		"rt": 819,
		"stimulus": "../audio/38-7-fem.mp3",
		"response": " ",
		"word": "frigideira.",
		"trial_type": "audio-keyboard-response",
		"trial_index": 309,
		"time_elapsed": 615215,
		"internal_node_id": "0.0-3.0-1.250"
	},
	{
		"rt": null,
		"stimulus": "<span style= \"font-size:30px; font-family: monospace\">+</span>",
		"response": null,
		"trial_part": "fixation",
		"trial_type": "html-keyboard-response",
		"trial_index": 310,
		"time_elapsed": 616493,
		"internal_node_id": "0.0-3.0-0.251-0.251"
	},
	{
		"rt": 621,
		"stimulus": "../audio/39-1-masc.mp3",
		"response": " ",
		"word": "O",
		"trial_type": "audio-keyboard-response",
		"trial_index": 311,
		"time_elapsed": 617513,
		"internal_node_id": "0.0-3.0-1.251"
	},
	{
		"rt": 741,
		"stimulus": "../audio/39-2-masc.mp3",
		"response": " ",
		"word": "conselho",
		"trial_type": "audio-keyboard-response",
		"trial_index": 312,
		"time_elapsed": 618594,
		"internal_node_id": "0.0-3.0-1.252"
	},
	{
		"rt": 720,
		"stimulus": "../audio/39-3-masc.mp3",
		"response": " ",
		"word": "foi",
		"trial_type": "audio-keyboard-response",
		"trial_index": 313,
		"time_elapsed": 619675,
		"internal_node_id": "0.0-3.0-1.253"
	},
	{
		"rt": 880,
		"stimulus": "../audio/39-4-masc.mp3",
		"response": " ",
		"word": "muito",
		"trial_type": "audio-keyboard-response",
		"trial_index": 314,
		"time_elapsed": 620899,
		"internal_node_id": "0.0-3.0-1.254"
	},
	{
		"rt": 829,
		"stimulus": "../audio/39-5-masc.mp3",
		"response": " ",
		"word": "útil",
		"trial_type": "audio-keyboard-response",
		"trial_index": 315,
		"time_elapsed": 622058,
		"internal_node_id": "0.0-3.0-1.255"
	},
	{
		"rt": 760,
		"stimulus": "../audio/39-6-masc.mp3",
		"response": " ",
		"word": "para",
		"trial_type": "audio-keyboard-response",
		"trial_index": 316,
		"time_elapsed": 623147,
		"internal_node_id": "0.0-3.0-1.256"
	},
	{
		"rt": 880,
		"stimulus": "../audio/39-7-masc.mp3",
		"response": " ",
		"word": "minha",
		"trial_type": "audio-keyboard-response",
		"trial_index": 317,
		"time_elapsed": 624411,
		"internal_node_id": "0.0-3.0-1.257"
	},
	{
		"rt": 981,
		"stimulus": "../audio/39-8-masc.mp3",
		"response": " ",
		"word": "tia.",
		"trial_type": "audio-keyboard-response",
		"trial_index": 318,
		"time_elapsed": 625704,
		"internal_node_id": "0.0-3.0-1.258"
	},
	{
		"rt": null,
		"stimulus": "<span style= \"font-size:30px; font-family: monospace\">+</span>",
		"response": null,
		"trial_part": "fixation",
		"trial_type": "html-keyboard-response",
		"trial_index": 319,
		"time_elapsed": 626973,
		"internal_node_id": "0.0-3.0-0.259-0.259"
	},
	{
		"rt": 720,
		"stimulus": "../audio/40-1-fem.mp3",
		"response": " ",
		"word": "O",
		"trial_type": "audio-keyboard-response",
		"trial_index": 320,
		"time_elapsed": 628060,
		"internal_node_id": "0.0-3.0-1.259"
	},
	{
		"rt": 1059,
		"stimulus": "../audio/40-2-fem.mp3",
		"response": " ",
		"word": "jogo",
		"trial_type": "audio-keyboard-response",
		"trial_index": 321,
		"time_elapsed": 629460,
		"internal_node_id": "0.0-3.0-1.260"
	},
	{
		"rt": 840,
		"stimulus": "../audio/40-3-fem.mp3",
		"response": " ",
		"word": "falava",
		"trial_type": "audio-keyboard-response",
		"trial_index": 322,
		"time_elapsed": 630660,
		"internal_node_id": "0.0-3.0-1.261"
	},
	{
		"rt": 840,
		"stimulus": "../audio/40-4-fem.mp3",
		"response": " ",
		"word": "de",
		"trial_type": "audio-keyboard-response",
		"trial_index": 323,
		"time_elapsed": 631828,
		"internal_node_id": "0.0-3.0-1.262"
	},
	{
		"rt": 779,
		"stimulus": "../audio/40-5-fem.mp3",
		"response": " ",
		"word": "fantasia",
		"trial_type": "audio-keyboard-response",
		"trial_index": 324,
		"time_elapsed": 632963,
		"internal_node_id": "0.0-3.0-1.263"
	},
	{
		"rt": 859,
		"stimulus": "../audio/40-6-fem.mp3",
		"response": " ",
		"word": "e",
		"trial_type": "audio-keyboard-response",
		"trial_index": 325,
		"time_elapsed": 634171,
		"internal_node_id": "0.0-3.0-1.264"
	},
	{
		"rt": 920,
		"stimulus": "../audio/40-7-fem.mp3",
		"response": " ",
		"word": "de",
		"trial_type": "audio-keyboard-response",
		"trial_index": 326,
		"time_elapsed": 635442,
		"internal_node_id": "0.0-3.0-1.265"
	},
	{
		"rt": 1469,
		"stimulus": "../audio/40-8-fem.mp3",
		"response": " ",
		"word": "aventura.",
		"trial_type": "audio-keyboard-response",
		"trial_index": 327,
		"time_elapsed": 637482,
		"internal_node_id": "0.0-3.0-1.266"
	},
	{
		"rt": 7473,
		"stimulus": "<span style=\"font-size:25px; font-family: monospace\">O jogo tinha fantasia e aventura?</span>",
		"response": "s",
		"question": "O jogo tinha fantasia e aventura?",
		"answer": "null",
		"trial": "exp-sent",
		"trial_type": "html-keyboard-response",
		"trial_index": 328,
		"time_elapsed": 645209,
		"internal_node_id": "0.0-3.0-2.266-0.266",
		"accuracy": false
	},
	{
		"rt": null,
		"stimulus": "<span style= \"font-size:30px; font-family: monospace\">+</span>",
		"response": null,
		"trial_part": "fixation",
		"trial_type": "html-keyboard-response",
		"trial_index": 329,
		"time_elapsed": 646735,
		"internal_node_id": "0.0-3.0-0.267-0.267"
	},
	{
		"rt": 661,
		"stimulus": "../audio/07-1-masc.mp3",
		"response": " ",
		"word": "Meu",
		"trial_type": "audio-keyboard-response",
		"trial_index": 330,
		"time_elapsed": 647786,
		"internal_node_id": "0.0-3.0-1.267"
	},
	{
		"rt": 512,
		"stimulus": "../audio/07-2-masc.mp3",
		"response": " ",
		"word": "filho",
		"trial_type": "audio-keyboard-response",
		"trial_index": 331,
		"time_elapsed": 648716,
		"internal_node_id": "0.0-3.0-1.268"
	},
	{
		"rt": 589,
		"stimulus": "../audio/07-3-masc.mp3",
		"response": " ",
		"word": "é",
		"trial_type": "audio-keyboard-response",
		"trial_index": 332,
		"time_elapsed": 649668,
		"internal_node_id": "0.0-3.0-1.269"
	},
	{
		"rt": 459,
		"stimulus": "../audio/07-4-masc.mp3",
		"response": " ",
		"word": "muito",
		"trial_type": "audio-keyboard-response",
		"trial_index": 333,
		"time_elapsed": 650457,
		"internal_node_id": "0.0-3.0-1.270"
	},
	{
		"rt": 451,
		"stimulus": "../audio/07-5-masc.mp3",
		"response": " ",
		"word": "responsável",
		"trial_type": "audio-keyboard-response",
		"trial_index": 334,
		"time_elapsed": 651268,
		"internal_node_id": "0.0-3.0-1.271"
	},
	{
		"rt": 200,
		"stimulus": "../audio/07-6-masc.mp3",
		"response": " ",
		"word": "nos",
		"trial_type": "audio-keyboard-response",
		"trial_index": 335,
		"time_elapsed": 651785,
		"internal_node_id": "0.0-3.0-1.272"
	},
	{
		"rt": 32,
		"stimulus": "../audio/07-7-masc.mp3",
		"response": " ",
		"word": "estudos.",
		"trial_type": "audio-keyboard-response",
		"trial_index": 336,
		"time_elapsed": 652153,
		"internal_node_id": "0.0-3.0-1.273"
	},
	{
		"rt": null,
		"stimulus": "<span style= \"font-size:30px; font-family: monospace\">+</span>",
		"response": null,
		"trial_part": "fixation",
		"trial_type": "html-keyboard-response",
		"trial_index": 337,
		"time_elapsed": 653421,
		"internal_node_id": "0.0-3.0-0.274-0.274"
	},
	{
		"rt": 11,
		"stimulus": "../audio/08-1-fem.mp3",
		"response": " ",
		"word": "A",
		"trial_type": "audio-keyboard-response",
		"trial_index": 338,
		"time_elapsed": 653815,
		"internal_node_id": "0.0-3.0-1.274"
	},
	{
		"rt": 619,
		"stimulus": "../audio/08-2-fem.mp3",
		"response": " ",
		"word": "receita",
		"trial_type": "audio-keyboard-response",
		"trial_index": 339,
		"time_elapsed": 655009,
		"internal_node_id": "0.0-3.0-1.275"
	},
	{
		"rt": 91,
		"stimulus": "../audio/08-3-fem.mp3",
		"response": " ",
		"word": "pede",
		"trial_type": "audio-keyboard-response",
		"trial_index": 340,
		"time_elapsed": 655415,
		"internal_node_id": "0.0-3.0-1.276"
	},
	{
		"rt": 240,
		"stimulus": "../audio/08-4-fem.mp3",
		"response": " ",
		"word": "um",
		"trial_type": "audio-keyboard-response",
		"trial_index": 341,
		"time_elapsed": 655971,
		"internal_node_id": "0.0-3.0-1.277"
	},
	{
		"rt": 261,
		"stimulus": "../audio/08-5-fem.mp3",
		"response": " ",
		"word": "litro",
		"trial_type": "audio-keyboard-response",
		"trial_index": 342,
		"time_elapsed": 656553,
		"internal_node_id": "0.0-3.0-1.278"
	},
	{
		"rt": 221,
		"stimulus": "../audio/08-6-fem.mp3",
		"response": " ",
		"word": "de",
		"trial_type": "audio-keyboard-response",
		"trial_index": 343,
		"time_elapsed": 657078,
		"internal_node_id": "0.0-3.0-1.279"
	},
	{
		"rt": 960,
		"stimulus": "../audio/08-7-fem.mp3",
		"response": " ",
		"word": "leite",
		"trial_type": "audio-keyboard-response",
		"trial_index": 344,
		"time_elapsed": 658391,
		"internal_node_id": "0.0-3.0-1.280"
	},
	{
		"rt": 680,
		"stimulus": "../audio/08-8-fem.mp3",
		"response": " ",
		"word": "integral.",
		"trial_type": "audio-keyboard-response",
		"trial_index": 345,
		"time_elapsed": 659408,
		"internal_node_id": "0.0-3.0-1.281"
	},
	{
		"rt": null,
		"stimulus": "<span style= \"font-size:30px; font-family: monospace\">+</span>",
		"response": null,
		"trial_part": "fixation",
		"trial_type": "html-keyboard-response",
		"trial_index": 346,
		"time_elapsed": 660668,
		"internal_node_id": "0.0-3.0-0.282-0.282"
	},
	{
		"rt": 680,
		"stimulus": "../audio/06-1-fem.mp3",
		"response": " ",
		"word": "Ouvimos",
		"trial_type": "audio-keyboard-response",
		"trial_index": 347,
		"time_elapsed": 661748,
		"internal_node_id": "0.0-3.0-1.282"
	},
	{
		"rt": 701,
		"stimulus": "../audio/06-2-fem.mp3",
		"response": " ",
		"word": "a",
		"trial_type": "audio-keyboard-response",
		"trial_index": 348,
		"time_elapsed": 662835,
		"internal_node_id": "0.0-3.0-1.283"
	},
	{
		"rt": 811,
		"stimulus": "../audio/06-3-fem.mp3",
		"response": " ",
		"word": "fala",
		"trial_type": "audio-keyboard-response",
		"trial_index": 349,
		"time_elapsed": 664021,
		"internal_node_id": "0.0-3.0-1.284"
	},
	{
		"rt": 651,
		"stimulus": "../audio/06-4-fem.mp3",
		"response": " ",
		"word": "do",
		"trial_type": "audio-keyboard-response",
		"trial_index": 350,
		"time_elapsed": 665071,
		"internal_node_id": "0.0-3.0-1.285"
	},
	{
		"rt": 1141,
		"stimulus": "../audio/06-5-fem.mp3",
		"response": " ",
		"word": "profeta",
		"trial_type": "audio-keyboard-response",
		"trial_index": 351,
		"time_elapsed": 666555,
		"internal_node_id": "0.0-3.0-1.286"
	},
	{
		"rt": 1019,
		"stimulus": "../audio/06-6-fem.mp3",
		"response": " ",
		"word": "no",
		"trial_type": "audio-keyboard-response",
		"trial_index": 352,
		"time_elapsed": 667898,
		"internal_node_id": "0.0-3.0-1.287"
	},
	{
		"rt": 1059,
		"stimulus": "../audio/06-7-fem.mp3",
		"response": " ",
		"word": "púlpito",
		"trial_type": "audio-keyboard-response",
		"trial_index": 353,
		"time_elapsed": 669294,
		"internal_node_id": "0.0-3.0-1.288"
	},
	{
		"rt": 741,
		"stimulus": "../audio/06-8-fem.mp3",
		"response": " ",
		"word": "da",
		"trial_type": "audio-keyboard-response",
		"trial_index": 354,
		"time_elapsed": 670343,
		"internal_node_id": "0.0-3.0-1.289"
	},
	{
		"rt": 931,
		"stimulus": "../audio/06-9-fem.mp3",
		"response": " ",
		"word": "igreja.",
		"trial_type": "audio-keyboard-response",
		"trial_index": 355,
		"time_elapsed": 671614,
		"internal_node_id": "0.0-3.0-1.290"
	},
	{
		"rt": null,
		"stimulus": "<span style= \"font-size:30px; font-family: monospace\">+</span>",
		"response": null,
		"trial_part": "fixation",
		"trial_type": "html-keyboard-response",
		"trial_index": 356,
		"time_elapsed": 672883,
		"internal_node_id": "0.0-3.0-0.291-0.291"
	},
	{
		"rt": 779,
		"stimulus": "../audio/09-1-fem.mp3",
		"response": " ",
		"word": "O",
		"trial_type": "audio-keyboard-response",
		"trial_index": 357,
		"time_elapsed": 676053,
		"internal_node_id": "0.0-3.0-1.291"
	},
	{
		"rt": 1160,
		"stimulus": "../audio/09-2-fem.mp3",
		"response": " ",
		"word": "rapaz",
		"trial_type": "audio-keyboard-response",
		"trial_index": 358,
		"time_elapsed": 677561,
		"internal_node_id": "0.0-3.0-1.292"
	},
	{
		"rt": 872,
		"stimulus": "../audio/09-3-fem.mp3",
		"response": " ",
		"word": "limpou",
		"trial_type": "audio-keyboard-response",
		"trial_index": 359,
		"time_elapsed": 678797,
		"internal_node_id": "0.0-3.0-1.293"
	},
	{
		"rt": 909,
		"stimulus": "../audio/09-4-fem.mp3",
		"response": " ",
		"word": "o",
		"trial_type": "audio-keyboard-response",
		"trial_index": 360,
		"time_elapsed": 680029,
		"internal_node_id": "0.0-3.0-1.294"
	},
	{
		"rt": 1029,
		"stimulus": "../audio/09-5-fem.mp3",
		"response": " ",
		"word": "terreno",
		"trial_type": "audio-keyboard-response",
		"trial_index": 361,
		"time_elapsed": 681413,
		"internal_node_id": "0.0-3.0-1.295"
	},
	{
		"rt": 760,
		"stimulus": "../audio/09-6-fem.mp3",
		"response": " ",
		"word": "com",
		"trial_type": "audio-keyboard-response",
		"trial_index": 362,
		"time_elapsed": 682492,
		"internal_node_id": "0.0-3.0-1.296"
	},
	{
		"rt": 891,
		"stimulus": "../audio/09-7-fem.mp3",
		"response": " ",
		"word": "uma",
		"trial_type": "audio-keyboard-response",
		"trial_index": 363,
		"time_elapsed": 683700,
		"internal_node_id": "0.0-3.0-1.297"
	},
	{
		"rt": 899,
		"stimulus": "../audio/09-8-fem.mp3",
		"response": " ",
		"word": "pá.",
		"trial_type": "audio-keyboard-response",
		"trial_index": 364,
		"time_elapsed": 684966,
		"internal_node_id": "0.0-3.0-1.298"
	},
	{
		"rt": null,
		"stimulus": "<span style= \"font-size:30px; font-family: monospace\">+</span>",
		"response": null,
		"trial_part": "fixation",
		"trial_type": "html-keyboard-response",
		"trial_index": 365,
		"time_elapsed": 686228,
		"internal_node_id": "0.0-3.0-0.299-0.299"
	},
	{
		"rt": 629,
		"stimulus": "../audio/10-1-fem.mp3",
		"response": " ",
		"word": "O",
		"trial_type": "audio-keyboard-response",
		"trial_index": 366,
		"time_elapsed": 687221,
		"internal_node_id": "0.0-3.0-1.299"
	},
	{
		"rt": 701,
		"stimulus": "../audio/10-2-fem.mp3",
		"response": " ",
		"word": "pássaro",
		"trial_type": "audio-keyboard-response",
		"trial_index": 367,
		"time_elapsed": 688260,
		"internal_node_id": "0.0-3.0-1.300"
	},
	{
		"rt": 829,
		"stimulus": "../audio/10-3-fem.mp3",
		"response": " ",
		"word": "azul",
		"trial_type": "audio-keyboard-response",
		"trial_index": 368,
		"time_elapsed": 689409,
		"internal_node_id": "0.0-3.0-1.301"
	},
	{
		"rt": 760,
		"stimulus": "../audio/10-4-fem.mp3",
		"response": " ",
		"word": "estava",
		"trial_type": "audio-keyboard-response",
		"trial_index": 369,
		"time_elapsed": 690549,
		"internal_node_id": "0.0-3.0-1.302"
	},
	{
		"rt": 699,
		"stimulus": "../audio/10-5-fem.mp3",
		"response": " ",
		"word": "vivo",
		"trial_type": "audio-keyboard-response",
		"trial_index": 370,
		"time_elapsed": 691572,
		"internal_node_id": "0.0-3.0-1.303"
	},
	{
		"rt": 640,
		"stimulus": "../audio/10-6-fem.mp3",
		"response": " ",
		"word": "e",
		"trial_type": "audio-keyboard-response",
		"trial_index": 371,
		"time_elapsed": 692532,
		"internal_node_id": "0.0-3.0-1.304"
	},
	{
		"rt": 701,
		"stimulus": "../audio/10-7-fem.mp3",
		"response": " ",
		"word": "em",
		"trial_type": "audio-keyboard-response",
		"trial_index": 372,
		"time_elapsed": 693554,
		"internal_node_id": "0.0-3.0-1.305"
	},
	{
		"rt": 592,
		"stimulus": "../audio/10-8-fem.mp3",
		"response": " ",
		"word": "segurança.",
		"trial_type": "audio-keyboard-response",
		"trial_index": 373,
		"time_elapsed": 694672,
		"internal_node_id": "0.0-3.0-1.306"
	},
	{
		"rt": 8517,
		"stimulus": "<span style=\"font-size:25px; font-family: monospace\">O pássaro vermelho estava em segurança?</span>",
		"response": "n",
		"question": "O pássaro vermelho estava em segurança?",
		"answer": "null",
		"trial": "exp-sent",
		"trial_type": "html-keyboard-response",
		"trial_index": 374,
		"time_elapsed": 703445,
		"internal_node_id": "0.0-3.0-2.306-0.306",
		"accuracy": false
	},
	{
		"rt": null,
		"stimulus": "<span style= \"font-size:30px; font-family: monospace\">+</span>",
		"response": null,
		"trial_part": "fixation",
		"trial_type": "html-keyboard-response",
		"trial_index": 375,
		"time_elapsed": 704969,
		"internal_node_id": "0.0-3.0-0.307-0.307"
	},
	{
		"rt": 648,
		"stimulus": "../audio/11-1-fem.mp3",
		"response": " ",
		"word": "Elas",
		"trial_type": "audio-keyboard-response",
		"trial_index": 376,
		"time_elapsed": 706005,
		"internal_node_id": "0.0-3.0-1.307"
	},
	{
		"rt": 691,
		"stimulus": "../audio/11-2-fem.mp3",
		"response": " ",
		"word": "gostam",
		"trial_type": "audio-keyboard-response",
		"trial_index": 377,
		"time_elapsed": 707038,
		"internal_node_id": "0.0-3.0-1.308"
	},
	{
		"rt": 928,
		"stimulus": "../audio/11-3-fem.mp3",
		"response": " ",
		"word": "muito",
		"trial_type": "audio-keyboard-response",
		"trial_index": 378,
		"time_elapsed": 708327,
		"internal_node_id": "0.0-3.0-1.309"
	},
	{
		"rt": 699,
		"stimulus": "../audio/11-4-fem.mp3",
		"response": " ",
		"word": "de",
		"trial_type": "audio-keyboard-response",
		"trial_index": 379,
		"time_elapsed": 709338,
		"internal_node_id": "0.0-3.0-1.310"
	},
	{
		"rt": 840,
		"stimulus": "../audio/11-5-fem.mp3",
		"response": " ",
		"word": "aritmética",
		"trial_type": "audio-keyboard-response",
		"trial_index": 380,
		"time_elapsed": 710556,
		"internal_node_id": "0.0-3.0-1.311"
	},
	{
		"rt": 749,
		"stimulus": "../audio/11-6-fem.mp3",
		"response": " ",
		"word": "e",
		"trial_type": "audio-keyboard-response",
		"trial_index": 381,
		"time_elapsed": 711661,
		"internal_node_id": "0.0-3.0-1.312"
	},
	{
		"rt": 829,
		"stimulus": "../audio/11-7-fem.mp3",
		"response": " ",
		"word": "de",
		"trial_type": "audio-keyboard-response",
		"trial_index": 382,
		"time_elapsed": 712806,
		"internal_node_id": "0.0-3.0-1.313"
	},
	{
		"rt": 1331,
		"stimulus": "../audio/11-8-fem.mp3",
		"response": " ",
		"word": "leitura.",
		"trial_type": "audio-keyboard-response",
		"trial_index": 383,
		"time_elapsed": 714552,
		"internal_node_id": "0.0-3.0-1.314"
	},
	{
		"rt": null,
		"stimulus": "<span style= \"font-size:30px; font-family: monospace\">+</span>",
		"response": null,
		"trial_part": "fixation",
		"trial_type": "html-keyboard-response",
		"trial_index": 384,
		"time_elapsed": 715828,
		"internal_node_id": "0.0-3.0-0.315-0.315"
	},
	{
		"rt": 800,
		"stimulus": "../audio/13-1-fem.mp3",
		"response": " ",
		"word": "Para",
		"trial_type": "audio-keyboard-response",
		"trial_index": 385,
		"time_elapsed": 717018,
		"internal_node_id": "0.0-3.0-1.315"
	},
	{
		"rt": 789,
		"stimulus": "../audio/13-2-fem.mp3",
		"response": " ",
		"word": "mim",
		"trial_type": "audio-keyboard-response",
		"trial_index": 386,
		"time_elapsed": 718168,
		"internal_node_id": "0.0-3.0-1.316"
	},
	{
		"rt": 731,
		"stimulus": "../audio/13-3-fem.mp3",
		"response": " ",
		"word": "é",
		"trial_type": "audio-keyboard-response",
		"trial_index": 387,
		"time_elapsed": 719225,
		"internal_node_id": "0.0-3.0-1.317"
	},
	{
		"rt": 992,
		"stimulus": "../audio/13-4-fem.mp3",
		"response": " ",
		"word": "muito",
		"trial_type": "audio-keyboard-response",
		"trial_index": 388,
		"time_elapsed": 720557,
		"internal_node_id": "0.0-3.0-1.318"
	},
	{
		"rt": 1091,
		"stimulus": "../audio/13-5-fem.mp3",
		"response": " ",
		"word": "difícil",
		"trial_type": "audio-keyboard-response",
		"trial_index": 389,
		"time_elapsed": 722011,
		"internal_node_id": "0.0-3.0-1.319"
	},
	{
		"rt": 1101,
		"stimulus": "../audio/13-6-fem.mp3",
		"response": " ",
		"word": "acordar",
		"trial_type": "audio-keyboard-response",
		"trial_index": 390,
		"time_elapsed": 723465,
		"internal_node_id": "0.0-3.0-1.320"
	},
	{
		"rt": 1000,
		"stimulus": "../audio/13-7-fem.mp3",
		"response": " ",
		"word": "cedo.",
		"trial_type": "audio-keyboard-response",
		"trial_index": 391,
		"time_elapsed": 724957,
		"internal_node_id": "0.0-3.0-1.321"
	},
	{
		"rt": null,
		"stimulus": "<span style= \"font-size:30px; font-family: monospace\">+</span>",
		"response": null,
		"trial_part": "fixation",
		"trial_type": "html-keyboard-response",
		"trial_index": 392,
		"time_elapsed": 726214,
		"internal_node_id": "0.0-3.0-0.322-0.322"
	},
	{
		"rt": 912,
		"stimulus": "../audio/12-1-fem.mp3",
		"response": " ",
		"word": "O",
		"trial_type": "audio-keyboard-response",
		"trial_index": 393,
		"time_elapsed": 727556,
		"internal_node_id": "0.0-3.0-1.322"
	},
	{
		"rt": 811,
		"stimulus": "../audio/12-2-fem.mp3",
		"response": " ",
		"word": "dia",
		"trial_type": "audio-keyboard-response",
		"trial_index": 394,
		"time_elapsed": 728706,
		"internal_node_id": "0.0-3.0-1.323"
	},
	{
		"rt": 1011,
		"stimulus": "../audio/12-3-fem.mp3",
		"response": " ",
		"word": "estava",
		"trial_type": "audio-keyboard-response",
		"trial_index": 395,
		"time_elapsed": 730103,
		"internal_node_id": "0.0-3.0-1.324"
	},
	{
		"rt": 2549,
		"stimulus": "../audio/12-4-fem.mp3",
		"response": " ",
		"word": "quente,",
		"trial_type": "audio-keyboard-response",
		"trial_index": 396,
		"time_elapsed": 732976,
		"internal_node_id": "0.0-3.0-1.325"
	},
	{
		"rt": 1291,
		"stimulus": "../audio/12-5-fem.mp3",
		"response": " ",
		"word": "tranquilo",
		"trial_type": "audio-keyboard-response",
		"trial_index": 397,
		"time_elapsed": 734664,
		"internal_node_id": "0.0-3.0-1.326"
	},
	{
		"rt": 752,
		"stimulus": "../audio/12-6-fem.mp3",
		"response": " ",
		"word": "e",
		"trial_type": "audio-keyboard-response",
		"trial_index": 398,
		"time_elapsed": 735837,
		"internal_node_id": "0.0-3.0-1.327"
	},
	{
		"rt": 1469,
		"stimulus": "../audio/12-7-fem.mp3",
		"response": " ",
		"word": "ensolarado.",
		"trial_type": "audio-keyboard-response",
		"trial_index": 399,
		"time_elapsed": 737689,
		"internal_node_id": "0.0-3.0-1.328"
	},
	{
		"rt": null,
		"stimulus": "<span style= \"font-size:30px; font-family: monospace\">+</span>",
		"response": null,
		"trial_part": "fixation",
		"trial_type": "html-keyboard-response",
		"trial_index": 400,
		"time_elapsed": 738955,
		"internal_node_id": "0.0-3.0-0.329-0.329"
	},
	{
		"rt": 149,
		"stimulus": "../audio/14-1-fem.mp3",
		"response": " ",
		"word": "O",
		"trial_type": "audio-keyboard-response",
		"trial_index": 401,
		"time_elapsed": 741485,
		"internal_node_id": "0.0-3.0-1.329"
	},
	{
		"rt": 1109,
		"stimulus": "../audio/14-2-fem.mp3",
		"response": " ",
		"word": "cachorro",
		"trial_type": "audio-keyboard-response",
		"trial_index": 402,
		"time_elapsed": 743013,
		"internal_node_id": "0.0-3.0-1.330"
	},
	{
		"rt": 899,
		"stimulus": "../audio/14-3-fem.mp3",
		"response": " ",
		"word": "é",
		"trial_type": "audio-keyboard-response",
		"trial_index": 403,
		"time_elapsed": 744290,
		"internal_node_id": "0.0-3.0-1.331"
	},
	{
		"rt": 971,
		"stimulus": "../audio/14-4-fem.mp3",
		"response": " ",
		"word": "muito",
		"trial_type": "audio-keyboard-response",
		"trial_index": 404,
		"time_elapsed": 745589,
		"internal_node_id": "0.0-3.0-1.332"
	},
	{
		"rt": 939,
		"stimulus": "../audio/14-5-fem.mp3",
		"response": " ",
		"word": "fiel",
		"trial_type": "audio-keyboard-response",
		"trial_index": 405,
		"time_elapsed": 746852,
		"internal_node_id": "0.0-3.0-1.333"
	},
	{
		"rt": 621,
		"stimulus": "../audio/14-6-fem.mp3",
		"response": " ",
		"word": "a",
		"trial_type": "audio-keyboard-response",
		"trial_index": 406,
		"time_elapsed": 747791,
		"internal_node_id": "0.0-3.0-1.334"
	},
	{
		"rt": 1299,
		"stimulus": "../audio/14-7-fem.mp3",
		"response": " ",
		"word": "seus",
		"trial_type": "audio-keyboard-response",
		"trial_index": 407,
		"time_elapsed": 749446,
		"internal_node_id": "0.0-3.0-1.335"
	},
	{
		"rt": 960,
		"stimulus": "../audio/14-8-fem.mp3",
		"response": " ",
		"word": "donos.",
		"trial_type": "audio-keyboard-response",
		"trial_index": 408,
		"time_elapsed": 750852,
		"internal_node_id": "0.0-3.0-1.336"
	},
	{
		"rt": null,
		"stimulus": "<span style= \"font-size:30px; font-family: monospace\">+</span>",
		"response": null,
		"trial_part": "fixation",
		"trial_type": "html-keyboard-response",
		"trial_index": 409,
		"time_elapsed": 752135,
		"internal_node_id": "0.0-3.0-0.337-0.337"
	},
	{
		"rt": 189,
		"stimulus": "../audio/15-1-fem.mp3",
		"response": " ",
		"word": "Meu",
		"trial_type": "audio-keyboard-response",
		"trial_index": 410,
		"time_elapsed": 752740,
		"internal_node_id": "0.0-3.0-1.337"
	},
	{
		"rt": 891,
		"stimulus": "../audio/15-2-fem.mp3",
		"response": " ",
		"word": "primo",
		"trial_type": "audio-keyboard-response",
		"trial_index": 411,
		"time_elapsed": 754195,
		"internal_node_id": "0.0-3.0-1.338"
	},
	{
		"rt": 779,
		"stimulus": "../audio/15-3-fem.mp3",
		"response": " ",
		"word": "é",
		"trial_type": "audio-keyboard-response",
		"trial_index": 412,
		"time_elapsed": 755369,
		"internal_node_id": "0.0-3.0-1.339"
	},
	{
		"rt": 829,
		"stimulus": "../audio/15-4-fem.mp3",
		"response": " ",
		"word": "um",
		"trial_type": "audio-keyboard-response",
		"trial_index": 413,
		"time_elapsed": 756522,
		"internal_node_id": "0.0-3.0-1.340"
	},
	{
		"rt": 1080,
		"stimulus": "../audio/15-5-fem.mp3",
		"response": " ",
		"word": "grande",
		"trial_type": "audio-keyboard-response",
		"trial_index": 414,
		"time_elapsed": 757951,
		"internal_node_id": "0.0-3.0-1.341"
	},
	{
		"rt": 1421,
		"stimulus": "../audio/15-6-fem.mp3",
		"response": " ",
		"word": "vendedor",
		"trial_type": "audio-keyboard-response",
		"trial_index": 415,
		"time_elapsed": 759751,
		"internal_node_id": "0.0-3.0-1.342"
	},
	{
		"rt": 1040,
		"stimulus": "../audio/15-7-fem.mp3",
		"response": " ",
		"word": "de",
		"trial_type": "audio-keyboard-response",
		"trial_index": 416,
		"time_elapsed": 761128,
		"internal_node_id": "0.0-3.0-1.343"
	},
	{
		"rt": 1040,
		"stimulus": "../audio/15-8-fem.mp3",
		"response": " ",
		"word": "carros.",
		"trial_type": "audio-keyboard-response",
		"trial_index": 417,
		"time_elapsed": 762518,
		"internal_node_id": "0.0-3.0-1.344"
	},
	{
		"rt": 4367,
		"stimulus": "<span style=\"font-size:25px; font-family: monospace\">O primo é um vendedor de carros?</span>",
		"response": "s",
		"question": "O primo é um vendedor de carros?",
		"answer": "null",
		"trial": "exp-sent",
		"trial_type": "html-keyboard-response",
		"trial_index": 418,
		"time_elapsed": 767140,
		"internal_node_id": "0.0-3.0-2.344-0.344",
		"accuracy": false
	},
	{
		"rt": null,
		"stimulus": "<span style= \"font-size:30px; font-family: monospace\">+</span>",
		"response": null,
		"trial_part": "fixation",
		"trial_type": "html-keyboard-response",
		"trial_index": 419,
		"time_elapsed": 768654,
		"internal_node_id": "0.0-3.0-0.345-0.345"
	},
	{
		"rt": 669,
		"stimulus": "../audio/22-1-masc.mp3",
		"response": " ",
		"word": "Eu",
		"trial_type": "audio-keyboard-response",
		"trial_index": 420,
		"time_elapsed": 769699,
		"internal_node_id": "0.0-3.0-1.345"
	},
	{
		"rt": 928,
		"stimulus": "../audio/22-2-masc.mp3",
		"response": " ",
		"word": "detesto",
		"trial_type": "audio-keyboard-response",
		"trial_index": 421,
		"time_elapsed": 771048,
		"internal_node_id": "0.0-3.0-1.346"
	},
	{
		"rt": 739,
		"stimulus": "../audio/22-3-masc.mp3",
		"response": " ",
		"word": "fumaça",
