"view_history","rt","trial_type","trial_index","time_elapsed","internal_node_id","stimulus","response","trial_part","word","question","answer","trial","accuracy"
"[{""page_index"":0,""viewing_time"":68220}]","68221","instructions","0","68225","0.0-0.0","","","","","","","",""
"","null","html-keyboard-response","1","69332","0.0-1.0-0.0-0.0","<span style= ""font-size:30px; font-family: monospace"">+</span>","null","fixation","","","","",""
"","9491","audio-keyboard-response","2","81467","0.0-1.0-1.0","../audio/prac-question-1-1.mp3"," ","","O","","","",""
"","1331","audio-keyboard-response","3","83163","0.0-1.0-1.1","../audio/prac-question-1-2.mp3"," ","","dia","","","",""
"","1309","audio-keyboard-response","4","84901","0.0-1.0-1.2","../audio/prac-question-1-3.mp3"," ","","estará","","","",""
"","1171","audio-keyboard-response","5","86388","0.0-1.0-1.3","../audio/prac-question-1-4.mp3"," ","","cheio","","","",""
"","880","audio-keyboard-response","6","87612","0.0-1.0-1.4","../audio/prac-question-1-5.mp3"," ","","de","","","",""
"","328","audio-keyboard-response","7","111888","0.0-1.0-1.5","../audio/prac-question-1-6.mp3"," ","","nuvens","","","",""
"","4411","audio-keyboard-response","8","116657","0.0-1.0-1.6","../audio/prac-question-1-7.mp3"," ","","hoje.","","","",""
"","null","html-keyboard-response","9","117930","0.0-1.0-0.7-0.7","<span style= ""font-size:30px; font-family: monospace"">+</span>","null","fixation","","","","",""
"","1688","audio-keyboard-response","10","120169","0.0-1.0-1.7","../audio/prac-question-2-1.mp3"," ","","A","","","",""
"","1568","audio-keyboard-response","11","122406","0.0-1.0-1.8","../audio/prac-question-2-2.mp3"," ","","caneca","","","",""
"","1451","audio-keyboard-response","12","124599","0.0-1.0-1.9","../audio/prac-question-2-3.mp3"," ","","colorida","","","",""
"","2141","audio-keyboard-response","13","127110","0.0-1.0-1.10","../audio/prac-question-2-4.mp3"," ","","caiu","","","",""
"","2120","audio-keyboard-response","14","129630","0.0-1.0-1.11","../audio/prac-question-2-5.mp3"," ","","da","","","",""
"","1192","audio-keyboard-response","15","131240","0.0-1.0-1.12","../audio/prac-question-2-6.mp3"," ","","mesa","","","",""
"","1371","audio-keyboard-response","16","132907","0.0-1.0-1.13","../audio/prac-question-2-7.mp3"," ","","de","","","",""
"","3648","audio-keyboard-response","17","139007","0.0-1.0-1.14","../audio/prac-question-2-8.mp3"," ","","jantar.","","","",""
"","6364","html-keyboard-response","18","145628","0.0-1.0-2.14-0.14","<span style=""font-size:25px; font-family: monospace"">A caneca era colorida?</span>","s","","","A caneca era colorida?","null","prac-sent","false"
"[{""page_index"":0,""viewing_time"":3793}]","3794","instructions","19","149936","0.0-2.0","","","","","","","",""
"","null","html-keyboard-response","20","151051","0.0-3.0-0.0-0.0","<span style= ""font-size:30px; font-family: monospace"">+</span>","null","fixation","","","","",""
"","3131","audio-keyboard-response","21","154558","0.0-3.0-1.0","../audio/42-1-masc.mp3"," ","","Eu","","","",""
"","2781","audio-keyboard-response","22","157706","0.0-3.0-1.1","../audio/42-2-masc.mp3"," ","","fui","","","",""
"","1219","audio-keyboard-response","23","159372","0.0-3.0-1.2","../audio/42-3-masc.mp3"," ","","a","","","",""
"","941","audio-keyboard-response","24","160637","0.0-3.0-1.3","../audio/42-4-masc.mp3"," ","","uma","","","",""
"","1280","audio-keyboard-response","25","162253","0.0-3.0-1.4","../audio/42-5-masc.mp3"," ","","loja","","","",""
"","731","audio-keyboard-response","26","163357","0.0-3.0-1.5","../audio/42-6-masc.mp3"," ","","de","","","",""
"","811","audio-keyboard-response","27","164511","0.0-3.0-1.6","../audio/42-7-masc.mp3"," ","","móveis","","","",""
"","851","audio-keyboard-response","28","165666","0.0-3.0-1.7","../audio/42-8-masc.mp3"," ","","no","","","",""
"","731","audio-keyboard-response","29","166743","0.0-3.0-1.8","../audio/42-9-masc.mp3"," ","","bairro.","","","",""
"","null","html-keyboard-response","30","168018","0.0-3.0-0.9-0.9","<span style= ""font-size:30px; font-family: monospace"">+</span>","null","fixation","","","","",""
"","1328","audio-keyboard-response","31","169724","0.0-3.0-1.9","../audio/44-1-fem.mp3"," ","","Meus","","","",""
"","1032","audio-keyboard-response","32","171080","0.0-3.0-1.10","../audio/44-2-fem.mp3"," ","","irmãos","","","",""
"","1048","audio-keyboard-response","33","172453","0.0-3.0-1.11","../audio/44-3-fem.mp3"," ","","brigam","","","",""
"","1019","audio-keyboard-response","34","173849","0.0-3.0-1.12","../audio/44-4-fem.mp3"," ","","por","","","",""
"","1400","audio-keyboard-response","35","175622","0.0-3.0-1.13","../audio/44-5-fem.mp3"," ","","bobagem","","","",""
"","981","audio-keyboard-response","36","176953","0.0-3.0-1.14","../audio/44-6-fem.mp3"," ","","todos","","","",""
"","891","audio-keyboard-response","37","178145","0.0-3.0-1.15","../audio/44-7-fem.mp3"," ","","os","","","",""
"","1240","audio-keyboard-response","38","179704","0.0-3.0-1.16","../audio/44-8-fem.mp3"," ","","dias.","","","",""
"","null","html-keyboard-response","39","180974","0.0-3.0-0.17-0.17","<span style= ""font-size:30px; font-family: monospace"">+</span>","null","fixation","","","","",""
"","781","audio-keyboard-response","40","182236","0.0-3.0-1.17","../audio/41-1-fem.mp3"," ","","A","","","",""
"","939","audio-keyboard-response","41","183617","0.0-3.0-1.18","../audio/41-2-fem.mp3"," ","","novela","","","",""
"","3552","audio-keyboard-response","42","187517","0.0-3.0-1.19","../audio/41-3-fem.mp3"," ","","falava","","","",""
"","680","audio-keyboard-response","43","188575","0.0-3.0-1.20","../audio/41-4-fem.mp3"," ","","de","","","",""
"","920","audio-keyboard-response","44","189829","0.0-3.0-1.21","../audio/41-5-fem.mp3"," ","","paixão","","","",""
"","3240","audio-keyboard-response","45","193396","0.0-3.0-1.22","../audio/41-6-fem.mp3"," ","","e","","","",""
"","9680","audio-keyboard-response","46","203477","0.0-3.0-1.23","../audio/41-7-fem.mp3"," ","","comédia.","","","",""
"","null","html-keyboard-response","47","204746","0.0-3.0-0.24-0.24","<span style= ""font-size:30px; font-family: monospace"">+</span>","null","fixation","","","","",""
"","1040","audio-keyboard-response","48","208227","0.0-3.0-1.24","../audio/43-1-masc.mp3"," ","","Eu","","","",""
"","832","audio-keyboard-response","49","209396","0.0-3.0-1.25","../audio/43-2-masc.mp3"," ","","achei","","","",""
"","720","audio-keyboard-response","50","210485","0.0-3.0-1.26","../audio/43-3-masc.mp3"," ","","um","","","",""
"","840","audio-keyboard-response","51","211657","0.0-3.0-1.27","../audio/43-4-masc.mp3"," ","","colchão","","","",""
"","880","audio-keyboard-response","52","212891","0.0-3.0-1.28","../audio/43-5-masc.mp3"," ","","velho","","","",""
"","760","audio-keyboard-response","53","214020","0.0-3.0-1.29","../audio/43-6-masc.mp3"," ","","e","","","",""
"","1000","audio-keyboard-response","54","215401","0.0-3.0-1.30","../audio/43-7-masc.mp3"," ","","imundo","","","",""
"","851","audio-keyboard-response","55","216558","0.0-3.0-1.31","../audio/43-8-masc.mp3"," ","","na","","","",""
"","800","audio-keyboard-response","56","217677","0.0-3.0-1.32","../audio/43-9-masc.mp3"," ","","casa.","","","",""
"","null","html-keyboard-response","57","218945","0.0-3.0-0.33-0.33","<span style= ""font-size:30px; font-family: monospace"">+</span>","null","fixation","","","","",""
"","968","audio-keyboard-response","58","220325","0.0-3.0-1.33","../audio/45-1-fem.mp3"," ","","O","","","",""
"","4499","audio-keyboard-response","59","225817","0.0-3.0-1.34","../audio/45-2-fem.mp3"," ","","homem","","","",""
"","941","audio-keyboard-response","60","232388","0.0-3.0-1.35","../audio/45-3-fem.mp3"," ","","pagou","","","",""
"","680","audio-keyboard-response","61","233452","0.0-3.0-1.36","../audio/45-4-fem.mp3"," ","","o","","","",""
"","1272","audio-keyboard-response","62","235035","0.0-3.0-1.37","../audio/45-5-fem.mp3"," ","","aluguel","","","",""
"","739","audio-keyboard-response","63","236093","0.0-3.0-1.38","../audio/45-6-fem.mp3"," ","","com","","","",""
"","1400","audio-keyboard-response","64","237844","0.0-3.0-1.39","../audio/45-7-fem.mp3"," ","","atraso.","","","",""
"","3997","html-keyboard-response","65","242097","0.0-3.0-2.39-0.39","<span style=""font-size:25px; font-family: monospace"">O homem pagou o aluguel em dia?</span>","n","","","O homem pagou o aluguel em dia?","null","exp-sent","false"
"","null","html-keyboard-response","66","243627","0.0-3.0-0.40-0.40","<span style= ""font-size:30px; font-family: monospace"">+</span>","null","fixation","","","","",""
"","1280","audio-keyboard-response","67","245328","0.0-3.0-1.40","../audio/76-1-fem.mp3"," ","","O","","","",""
"","11341","audio-keyboard-response","68","257024","0.0-3.0-1.41","../audio/76-2-fem.mp3"," ","","bisavô","","","",""
"","1080","audio-keyboard-response","69","258529","0.0-3.0-1.42","../audio/76-3-fem.mp3"," ","","comprou","","","",""
"","880","audio-keyboard-response","70","259734","0.0-3.0-1.43","../audio/76-4-fem.mp3"," ","","um","","","",""
"","5811","audio-keyboard-response","71","265937","0.0-3.0-1.44","../audio/76-5-fem.mp3"," ","","ralador","","","",""
"","909","audio-keyboard-response","72","267214","0.0-3.0-1.45","../audio/76-6-fem.mp3"," ","","de","","","",""
"","840","audio-keyboard-response","73","268377","0.0-3.0-1.46","../audio/76-7-fem.mp3"," ","","queijo.","","","",""
"","null","html-keyboard-response","74","269644","0.0-3.0-0.47-0.47","<span style= ""font-size:30px; font-family: monospace"">+</span>","null","fixation","","","","",""
"","928","audio-keyboard-response","75","273009","0.0-3.0-1.47","../audio/77-1-masc.mp3"," ","","A","","","",""
"","1211","audio-keyboard-response","76","274637","0.0-3.0-1.48","../audio/77-2-masc.mp3"," ","","criança","","","",""
"","3659","audio-keyboard-response","77","278621","0.0-3.0-1.49","../audio/77-3-masc.mp3"," ","","ficou","","","",""
"","1000","audio-keyboard-response","78","280022","0.0-3.0-1.50","../audio/77-4-masc.mp3"," ","","muito","","","",""
"","920","audio-keyboard-response","79","281281","0.0-3.0-1.51","../audio/77-5-masc.mp3"," ","","feliz","","","",""
"","779","audio-keyboard-response","80","282365","0.0-3.0-1.52","../audio/77-6-masc.mp3"," ","","com","","","",""
"","709","audio-keyboard-response","81","283494","0.0-3.0-1.53","../audio/77-7-masc.mp3"," ","","o","","","",""
"","1619","audio-keyboard-response","82","285444","0.0-3.0-1.54","../audio/77-8-masc.mp3"," ","","brinquedo.","","","",""
"","null","html-keyboard-response","83","286715","0.0-3.0-0.55-0.55","<span style= ""font-size:30px; font-family: monospace"">+</span>","null","fixation","","","","",""
"","832","audio-keyboard-response","84","287920","0.0-3.0-1.55","../audio/79-1-fem.mp3"," ","","A","","","",""
"","1029","audio-keyboard-response","85","289299","0.0-3.0-1.56","../audio/79-2-fem.mp3"," ","","médica","","","",""
"","1229","audio-keyboard-response","86","290883","0.0-3.0-1.57","../audio/79-3-fem.mp3"," ","","verificou","","","",""
"","771","audio-keyboard-response","87","291987","0.0-3.0-1.58","../audio/79-4-fem.mp3"," ","","a","","","",""
"","1520","audio-keyboard-response","88","293894","0.0-3.0-1.59","../audio/79-5-fem.mp3"," ","","gengiva","","","",""
"","949","audio-keyboard-response","89","295218","0.0-3.0-1.60","../audio/79-6-fem.mp3"," ","","por","","","",""
"","1320","audio-keyboard-response","90","296869","0.0-3.0-1.61","../audio/79-7-fem.mp3"," ","","último.","","","",""
"","null","html-keyboard-response","91","298128","0.0-3.0-0.62-0.62","<span style= ""font-size:30px; font-family: monospace"">+</span>","null","fixation","","","","",""
"","1429","audio-keyboard-response","92","299973","0.0-3.0-1.62","../audio/78-1-fem.mp3"," ","","Eles","","","",""
"","1149","audio-keyboard-response","93","301498","0.0-3.0-1.63","../audio/78-2-fem.mp3"," ","","trazem","","","",""
"","800","audio-keyboard-response","94","302651","0.0-3.0-1.64","../audio/78-3-fem.mp3"," ","","um","","","",""
"","1101","audio-keyboard-response","95","304155","0.0-3.0-1.65","../audio/78-4-fem.mp3"," ","","fato","","","",""
"","1509","audio-keyboard-response","96","306054","0.0-3.0-1.66","../audio/78-5-fem.mp3"," ","","urgente","","","",""
"","1179","audio-keyboard-response","97","307564","0.0-3.0-1.67","../audio/78-6-fem.mp3"," ","","todos","","","",""
"","1051","audio-keyboard-response","98","308939","0.0-3.0-1.68","../audio/78-7-fem.mp3"," ","","os","","","",""
"","1200","audio-keyboard-response","99","310478","0.0-3.0-1.69","../audio/78-8-fem.mp3"," ","","dias.","","","",""
"","null","html-keyboard-response","100","311745","0.0-3.0-0.70-0.70","<span style= ""font-size:30px; font-family: monospace"">+</span>","null","fixation","","","","",""
"","80","audio-keyboard-response","101","312197","0.0-3.0-1.70","../audio/80-1-masc.mp3"," ","","Meu","","","",""
"","920","audio-keyboard-response","102","313532","0.0-3.0-1.71","../audio/80-2-masc.mp3"," ","","primo","","","",""
"","912","audio-keyboard-response","103","314795","0.0-3.0-1.72","../audio/80-3-masc.mp3"," ","","conheceu","","","",""
"","840","audio-keyboard-response","104","315964","0.0-3.0-1.73","../audio/80-4-masc.mp3"," ","","um","","","",""
"","949","audio-keyboard-response","105","317270","0.0-3.0-1.74","../audio/80-5-masc.mp3"," ","","jovem","","","",""
"","1131","audio-keyboard-response","106","318741","0.0-3.0-1.75","../audio/80-6-masc.mp3"," ","","amável","","","",""
"","1091","audio-keyboard-response","107","320147","0.0-3.0-1.76","../audio/80-7-masc.mp3"," ","","e","","","",""
"","1331","audio-keyboard-response","108","321818","0.0-3.0-1.77","../audio/80-8-masc.mp3"," ","","confiante.","","","",""
"","7594","html-keyboard-response","109","329679","0.0-3.0-2.77-0.77","<span style=""font-size:25px; font-family: monospace"">O primo conheceu um jovem irritante?</span>","n","","","O primo conheceu um jovem irritante?","null","exp-sent","false"
"","null","html-keyboard-response","110","331212","0.0-3.0-0.78-0.78","<span style= ""font-size:30px; font-family: monospace"">+</span>","null","fixation","","","","",""
"","651","audio-keyboard-response","111","332253","0.0-3.0-1.78","../audio/56-1-masc.mp3"," ","","A","","","",""
"","869","audio-keyboard-response","112","335525","0.0-3.0-1.79","../audio/56-2-masc.mp3"," ","","moça","","","",""
"","909","audio-keyboard-response","113","336747","0.0-3.0-1.80","../audio/56-3-masc.mp3"," ","","foi","","","",""
"","749","audio-keyboard-response","114","337818","0.0-3.0-1.81","../audio/56-4-masc.mp3"," ","","à","","","",""
"","931","audio-keyboard-response","115","339133","0.0-3.0-1.82","../audio/56-5-masc.mp3"," ","","agência","","","",""
"","1179","audio-keyboard-response","116","340661","0.0-3.0-1.83","../audio/56-6-masc.mp3"," ","","bancária","","","",""
"","1000","audio-keyboard-response","117","341974","0.0-3.0-1.84","../audio/56-7-masc.mp3"," ","","ontem","","","",""
"","861","audio-keyboard-response","118","343150","0.0-3.0-1.85","../audio/56-8-masc.mp3"," ","","de","","","",""
"","869","audio-keyboard-response","119","344415","0.0-3.0-1.86","../audio/56-9-masc.mp3"," ","","tarde.","","","",""
"","null","html-keyboard-response","120","345669","0.0-3.0-0.87-0.87","<span style= ""font-size:30px; font-family: monospace"">+</span>","null","fixation","","","","",""
"","1192","audio-keyboard-response","121","347235","0.0-3.0-1.87","../audio/58-1-masc.mp3"," ","","Havia","","","",""
"","1011","audio-keyboard-response","122","348585","0.0-3.0-1.88","../audio/58-2-masc.mp3"," ","","apenas","","","",""
"","720","audio-keyboard-response","123","349634","0.0-3.0-1.89","../audio/58-3-masc.mp3"," ","","um","","","",""
"","1120","audio-keyboard-response","124","351108","0.0-3.0-1.90","../audio/58-4-masc.mp3"," ","","último","","","",""
"","1269","audio-keyboard-response","125","352690","0.0-3.0-1.91","../audio/58-5-masc.mp3"," ","","herdeiro","","","",""
"","861","audio-keyboard-response","126","353943","0.0-3.0-1.92","../audio/58-6-masc.mp3"," ","","do","","","",""
"","1349","audio-keyboard-response","127","355652","0.0-3.0-1.93","../audio/58-7-masc.mp3"," ","","dinheiro.","","","",""
"","null","html-keyboard-response","128","356918","0.0-3.0-0.94-0.94","<span style= ""font-size:30px; font-family: monospace"">+</span>","null","fixation","","","","",""
"","880","audio-keyboard-response","129","358223","0.0-3.0-1.94","../audio/57-1-masc.mp3"," ","","O","","","",""
"","1680","audio-keyboard-response","130","360304","0.0-3.0-1.95","../audio/57-2-masc.mp3"," ","","capitão","","","",""
"","920","audio-keyboard-response","131","361604","0.0-3.0-1.96","../audio/57-3-masc.mp3"," ","","deu","","","",""
"","829","audio-keyboard-response","132","362750","0.0-3.0-1.97","../audio/57-4-masc.mp3"," ","","uma","","","",""
"","1371","audio-keyboard-response","133","364546","0.0-3.0-1.98","../audio/57-5-masc.mp3"," ","","instrução","","","",""
"","771","audio-keyboard-response","134","365720","0.0-3.0-1.99","../audio/57-6-masc.mp3"," ","","para","","","",""
"","1059","audio-keyboard-response","135","367096","0.0-3.0-1.100","../audio/57-7-masc.mp3"," ","","as","","","",""
"","1661","audio-keyboard-response","136","369115","0.0-3.0-1.101","../audio/57-8-masc.mp3"," ","","pessoas.","","","",""
"","null","html-keyboard-response","137","370396","0.0-3.0-0.102-0.102","<span style= ""font-size:30px; font-family: monospace"">+</span>","null","fixation","","","","",""
"","179","audio-keyboard-response","138","370963","0.0-3.0-1.102","../audio/59-1-masc.mp3"," ","","O","","","",""
"","1179","audio-keyboard-response","139","372491","0.0-3.0-1.103","../audio/59-2-masc.mp3"," ","","carteiro","","","",""
"","891","audio-keyboard-response","140","373745","0.0-3.0-1.104","../audio/59-3-masc.mp3"," ","","fez","","","",""
"","1000","audio-keyboard-response","141","375066","0.0-3.0-1.105","../audio/59-4-masc.mp3"," ","","uma","","","",""
"","1248","audio-keyboard-response","142","376687","0.0-3.0-1.106","../audio/59-5-masc.mp3"," ","","tentativa","","","",""
"","832","audio-keyboard-response","143","377839","0.0-3.0-1.107","../audio/59-6-masc.mp3"," ","","de","","","",""
"","1069","audio-keyboard-response","144","379229","0.0-3.0-1.108","../audio/59-7-masc.mp3"," ","","entrega.","","","",""
"","null","html-keyboard-response","145","380488","0.0-3.0-0.109-0.109","<span style= ""font-size:30px; font-family: monospace"">+</span>","null","fixation","","","","",""
"","1248","audio-keyboard-response","146","382163","0.0-3.0-1.109","../audio/60-1-fem.mp3"," ","","Ondas","","","",""
"","781","audio-keyboard-response","147","383268","0.0-3.0-1.110","../audio/60-2-fem.mp3"," ","","têm","","","",""
"","880","audio-keyboard-response","148","384513","0.0-3.0-1.111","../audio/60-3-fem.mp3"," ","","um","","","",""
"","1301","audio-keyboard-response","149","386157","0.0-3.0-1.112","../audio/60-4-fem.mp3"," ","","impacto","","","",""
"","1669","audio-keyboard-response","150","388184","0.0-3.0-1.113","../audio/60-5-fem.mp3"," ","","destrutivo","","","",""
"","861","audio-keyboard-response","151","389544","0.0-3.0-1.114","../audio/60-6-fem.mp3"," ","","no","","","",""
"","1512","audio-keyboard-response","152","391434","0.0-3.0-1.115","../audio/60-7-fem.mp3"," ","","litoral.","","","",""
"","4729","html-keyboard-response","153","396417","0.0-3.0-2.115-0.115","<span style=""font-size:25px; font-family: monospace"">Ondas têm um impacto destrutivo?</span>","s","","","Ondas têm um impacto destrutivo?","null","exp-sent","false"
"","null","html-keyboard-response","154","397922","0.0-3.0-0.116-0.116","<span style= ""font-size:30px; font-family: monospace"">+</span>","null","fixation","","","","",""
"","1931","audio-keyboard-response","155","402264","0.0-3.0-1.116","../audio/19-1-fem.mp3"," ","","O","","","",""
"","1120","audio-keyboard-response","156","403783","0.0-3.0-1.117","../audio/19-2-fem.mp3"," ","","menino","","","",""
"","949","audio-keyboard-response","157","405063","0.0-3.0-1.118","../audio/19-3-fem.mp3"," ","","ganhou","","","",""
"","760","audio-keyboard-response","158","406169","0.0-3.0-1.119","../audio/19-4-fem.mp3"," ","","uma","","","",""
"","960","audio-keyboard-response","159","407456","0.0-3.0-1.120","../audio/19-5-fem.mp3"," ","","bala","","","",""
"","1120","audio-keyboard-response","160","408910","0.0-3.0-1.121","../audio/19-6-fem.mp3"," ","","depois","","","",""
"","851","audio-keyboard-response","161","410067","0.0-3.0-1.122","../audio/19-7-fem.mp3"," ","","do","","","",""
"","1229","audio-keyboard-response","162","411712","0.0-3.0-1.123","../audio/19-8-fem.mp3"," ","","almoço.","","","",""
"","null","html-keyboard-response","163","412989","0.0-3.0-0.124-0.124","<span style= ""font-size:30px; font-family: monospace"">+</span>","null","fixation","","","","",""
"","240","audio-keyboard-response","164","413641","0.0-3.0-1.124","../audio/17-1-fem.mp3"," ","","Falaram","","","",""
"","1120","audio-keyboard-response","165","415075","0.0-3.0-1.125","../audio/17-2-fem.mp3"," ","","da","","","",""
"","749","audio-keyboard-response","166","416150","0.0-3.0-1.126","../audio/17-3-fem.mp3"," ","","lei","","","",""
"","741","audio-keyboard-response","167","417230","0.0-3.0-1.127","../audio/17-4-fem.mp3"," ","","no","","","",""
"","691","audio-keyboard-response","168","418279","0.0-3.0-1.128","../audio/17-5-fem.mp3"," ","","ministério","","","",""
"","1109","audio-keyboard-response","169","419739","0.0-3.0-1.129","../audio/17-6-fem.mp3"," ","","diversas","","","",""
"","931","audio-keyboard-response","170","421057","0.0-3.0-1.130","../audio/17-7-fem.mp3"," ","","vezes.","","","",""
"","null","html-keyboard-response","171","422327","0.0-3.0-0.131-0.131","<span style= ""font-size:30px; font-family: monospace"">+</span>","null","fixation","","","","",""
"","1299","audio-keyboard-response","172","424089","0.0-3.0-1.131","../audio/18-1-fem.mp3"," ","","O","","","",""
"","1301","audio-keyboard-response","173","425747","0.0-3.0-1.132","../audio/18-2-fem.mp3"," ","","enredo","","","",""
"","821","audio-keyboard-response","174","426904","0.0-3.0-1.133","../audio/18-3-fem.mp3"," ","","traz","","","",""
"","1000","audio-keyboard-response","175","428223","0.0-3.0-1.134","../audio/18-4-fem.mp3"," ","","um","","","",""
"","1152","audio-keyboard-response","176","429713","0.0-3.0-1.135","../audio/18-5-fem.mp3"," ","","dragão","","","",""
"","952","audio-keyboard-response","177","430997","0.0-3.0-1.136","../audio/18-6-fem.mp3"," ","","forte","","","",""
"","781","audio-keyboard-response","178","432157","0.0-3.0-1.137","../audio/18-7-fem.mp3"," ","","e","","","",""
"","1640","audio-keyboard-response","179","434214","0.0-3.0-1.138","../audio/18-8-fem.mp3"," ","","solitário.","","","",""
"","null","html-keyboard-response","180","435468","0.0-3.0-0.139-0.139","<span style= ""font-size:30px; font-family: monospace"">+</span>","null","fixation","","","","",""
"","992","audio-keyboard-response","181","436955","0.0-3.0-1.139","../audio/16-1-masc.mp3"," ","","Eu","","","",""
"","979","audio-keyboard-response","182","438257","0.0-3.0-1.140","../audio/16-2-masc.mp3"," ","","nunca","","","",""
"","960","audio-keyboard-response","183","439594","0.0-3.0-1.141","../audio/16-3-masc.mp3"," ","","conheci","","","",""
"","829","audio-keyboard-response","184","440741","0.0-3.0-1.142","../audio/16-4-masc.mp3"," ","","um","","","",""
"","1200","audio-keyboard-response","185","442291","0.0-3.0-1.143","../audio/16-5-masc.mp3"," ","","general","","","",""
"","1200","audio-keyboard-response","186","443797","0.0-3.0-1.144","../audio/16-6-masc.mp3"," ","","do","","","",""
"","1499","audio-keyboard-response","187","445646","0.0-3.0-1.145","../audio/16-7-masc.mp3"," ","","exército.","","","",""
"","null","html-keyboard-response","188","446905","0.0-3.0-0.146-0.146","<span style= ""font-size:30px; font-family: monospace"">+</span>","null","fixation","","","","",""
"","739","audio-keyboard-response","189","448218","0.0-3.0-1.146","../audio/20-1-masc.mp3"," ","","O","","","",""
"","931","audio-keyboard-response","190","449513","0.0-3.0-1.147","../audio/20-2-masc.mp3"," ","","colega","","","",""
"","920","audio-keyboard-response","191","450774","0.0-3.0-1.148","../audio/20-3-masc.mp3"," ","","parecia","","","",""
"","1088","audio-keyboard-response","192","452204","0.0-3.0-1.149","../audio/20-4-masc.mp3"," ","","muito","","","",""
"","1288","audio-keyboard-response","193","453849","0.0-3.0-1.150","../audio/20-5-masc.mp3"," ","","gripado","","","",""
"","941","audio-keyboard-response","194","455148","0.0-3.0-1.151","../audio/20-6-masc.mp3"," ","","no","","","",""
"","960","audio-keyboard-response","195","456485","0.0-3.0-1.152","../audio/20-7-masc.mp3"," ","","dia","","","",""
"","1229","audio-keyboard-response","196","458106","0.0-3.0-1.153","../audio/20-8-masc.mp3"," ","","anterior.","","","",""
"","4301","html-keyboard-response","197","462663","0.0-3.0-2.153-0.153","<span style=""font-size:25px; font-family: monospace"">O colega parecia muito gripado?</span>","s","","","O colega parecia muito gripado?","null","exp-sent","false"
"","null","html-keyboard-response","198","464167","0.0-3.0-0.154-0.154","<span style= ""font-size:30px; font-family: monospace"">+</span>","null","fixation","","","","",""
"","691","audio-keyboard-response","199","467339","0.0-3.0-1.154","../audio/63-1-masc.mp3"," ","","A","","","",""
"","949","audio-keyboard-response","200","468626","0.0-3.0-1.155","../audio/63-2-masc.mp3"," ","","chuva","","","",""
"","789","audio-keyboard-response","201","469749","0.0-3.0-1.156","../audio/63-3-masc.mp3"," ","","entrou","","","",""
"","691","audio-keyboard-response","202","470747","0.0-3.0-1.157","../audio/63-4-masc.mp3"," ","","pela","","","",""
"","1171","audio-keyboard-response","203","472310","0.0-3.0-1.158","../audio/63-5-masc.mp3"," ","","abertura","","","",""
"","829","audio-keyboard-response","204","473466","0.0-3.0-1.159","../audio/63-6-masc.mp3"," ","","na","","","",""
"","1251","audio-keyboard-response","205","475146","0.0-3.0-1.160","../audio/63-7-masc.mp3"," ","","janela.","","","",""
"","null","html-keyboard-response","206","476424","0.0-3.0-0.161-0.161","<span style= ""font-size:30px; font-family: monospace"">+</span>","null","fixation","","","","",""
"","1181","audio-keyboard-response","207","477995","0.0-3.0-1.161","../audio/62-1-masc.mp3"," ","","As","","","",""
"","1611","audio-keyboard-response","208","479951","0.0-3.0-1.162","../audio/62-2-masc.mp3"," ","","artesãs","","","",""
"","1080","audio-keyboard-response","209","481352","0.0-3.0-1.163","../audio/62-3-masc.mp3"," ","","gostam","","","",""
"","829","audio-keyboard-response","210","482494","0.0-3.0-1.164","../audio/62-4-masc.mp3"," ","","de","","","",""
"","1280","audio-keyboard-response","211","484520","0.0-3.0-1.165","../audio/62-5-masc.mp3"," ","","maquiagem","","","",""
"","688","audio-keyboard-response","212","485564","0.0-3.0-1.166","../audio/62-6-masc.mp3"," ","","e","","","",""
"","640","audio-keyboard-response","213","486513","0.0-3.0-1.167","../audio/62-7-masc.mp3"," ","","de","","","",""
"","560","audio-keyboard-response","214","487396","0.0-3.0-1.168","../audio/62-8-masc.mp3"," ","","crochê.","","","",""
"","null","html-keyboard-response","215","488657","0.0-3.0-0.169-0.169","<span style= ""font-size:30px; font-family: monospace"">+</span>","null","fixation","","","","",""
"","1149","audio-keyboard-response","216","490294","0.0-3.0-1.169","../audio/61-1-fem.mp3"," ","","Aquele","","","",""
"","800","audio-keyboard-response","217","491448","0.0-3.0-1.170","../audio/61-2-fem.mp3"," ","","senhor","","","",""
"","592","audio-keyboard-response","218","492357","0.0-3.0-1.171","../audio/61-3-fem.mp3"," ","","é","","","",""
"","720","audio-keyboard-response","219","493431","0.0-3.0-1.172","../audio/61-4-fem.mp3"," ","","muito","","","",""
"","669","audio-keyboard-response","220","494527","0.0-3.0-1.173","../audio/61-5-fem.mp3"," ","","sovina","","","",""
"","1181","audio-keyboard-response","221","496027","0.0-3.0-1.174","../audio/61-6-fem.mp3"," ","","e","","","",""
"","1680","audio-keyboard-response","222","498070","0.0-3.0-1.175","../audio/61-7-fem.mp3"," ","","inflexível.","","","",""
"","null","html-keyboard-response","223","499350","0.0-3.0-0.176-0.176","<span style= ""font-size:30px; font-family: monospace"">+</span>","null","fixation","","","","",""
"","720","audio-keyboard-response","224","500488","0.0-3.0-1.176","../audio/64-1-fem.mp3"," ","","O","","","",""
"","800","audio-keyboard-response","225","501595","0.0-3.0-1.177","../audio/64-2-fem.mp3"," ","","dia","","","",""
"","960","audio-keyboard-response","226","502911","0.0-3.0-1.178","../audio/64-3-fem.mp3"," ","","começou","","","",""
"","701","audio-keyboard-response","227","503982","0.0-3.0-1.179","../audio/64-4-fem.mp3"," ","","com","","","",""
"","749","audio-keyboard-response","228","505142","0.0-3.0-1.180","../audio/64-5-fem.mp3"," ","","garoa","","","",""
"","1080","audio-keyboard-response","229","506616","0.0-3.0-1.181","../audio/64-6-fem.mp3"," ","","gelada","","","",""
"","691","audio-keyboard-response","230","507659","0.0-3.0-1.182","../audio/64-7-fem.mp3"," ","","e","","","",""
"","1072","audio-keyboard-response","231","509080","0.0-3.0-1.183","../audio/64-8-fem.mp3"," ","","leve.","","","",""
"","null","html-keyboard-response","232","510343","0.0-3.0-0.184-0.184","<span style= ""font-size:30px; font-family: monospace"">+</span>","null","fixation","","","","",""
"","229","audio-keyboard-response","233","511228","0.0-3.0-1.184","../audio/65-1-masc.mp3"," ","","O","","","",""
"","989","audio-keyboard-response","234","512563","0.0-3.0-1.185","../audio/65-2-masc.mp3"," ","","fantasma","","","",""
"","909","audio-keyboard-response","235","513856","0.0-3.0-1.186","../audio/65-3-masc.mp3"," ","","veio","","","",""
"","821","audio-keyboard-response","236","514987","0.0-3.0-1.187","../audio/65-4-masc.mp3"," ","","da","","","",""
"","1269","audio-keyboard-response","237","516688","0.0-3.0-1.188","../audio/65-5-masc.mp3"," ","","escuridão","","","",""
"","731","audio-keyboard-response","238","517837","0.0-3.0-1.189","../audio/65-6-masc.mp3"," ","","do","","","",""
"","891","audio-keyboard-response","239","519174","0.0-3.0-1.190","../audio/65-7-masc.mp3"," ","","armário.","","","",""
"","3630","html-keyboard-response","240","523059","0.0-3.0-2.190-0.190","<span style=""font-size:25px; font-family: monospace"">O fantasma veio da escuridão do armário?</span>","s","","","O fantasma veio da escuridão do armário?","null","exp-sent","false"
"","null","html-keyboard-response","241","524570","0.0-3.0-0.191-0.191","<span style= ""font-size:30px; font-family: monospace"">+</span>","null","fixation","","","","",""
"","880","audio-keyboard-response","242","525842","0.0-3.0-1.191","../audio/49-1-fem.mp3"," ","","Eu","","","",""
"","811","audio-keyboard-response","243","527029","0.0-3.0-1.192","../audio/49-2-fem.mp3"," ","","quero","","","",""
"","920","audio-keyboard-response","244","528266","0.0-3.0-1.193","../audio/49-3-fem.mp3"," ","","um","","","",""
"","1080","audio-keyboard-response","245","529675","0.0-3.0-1.194","../audio/49-4-fem.mp3"," ","","lanche","","","",""
"","968","audio-keyboard-response","246","530966","0.0-3.0-1.195","../audio/49-5-fem.mp3"," ","","duplo","","","",""
"","720","audio-keyboard-response","247","531999","0.0-3.0-1.196","../audio/49-6-fem.mp3"," ","","e","","","",""
"","829","audio-keyboard-response","248","533179","0.0-3.0-1.197","../audio/49-7-fem.mp3"," ","","um","","","",""
"","880","audio-keyboard-response","249","536549","0.0-3.0-1.198","../audio/49-8-fem.mp3"," ","","suco.","","","",""
"","null","html-keyboard-response","250","537821","0.0-3.0-0.199-0.199","<span style= ""font-size:30px; font-family: monospace"">+</span>","null","fixation","","","","",""
"","571","audio-keyboard-response","251","538785","0.0-3.0-1.199","../audio/46-1-masc.mp3"," ","","Meu","","","",""
"","709","audio-keyboard-response","252","539817","0.0-3.0-1.200","../audio/46-2-masc.mp3"," ","","primo","","","",""
"","931","audio-keyboard-response","253","541101","0.0-3.0-1.201","../audio/46-3-masc.mp3"," ","","estava","","","",""
"","859","audio-keyboard-response","254","542300","0.0-3.0-1.202","../audio/46-4-masc.mp3"," ","","muito","","","",""
"","1040","audio-keyboard-response","255","543704","0.0-3.0-1.203","../audio/46-5-masc.mp3"," ","","deprimido","","","",""
"","821","audio-keyboard-response","256","544946","0.0-3.0-1.204","../audio/46-6-masc.mp3"," ","","no","","","",""
"","1149","audio-keyboard-response","257","546412","0.0-3.0-1.205","../audio/46-7-masc.mp3"," ","","inverno.","","","",""
"","null","html-keyboard-response","258","547692","0.0-3.0-0.206-0.206","<span style= ""font-size:30px; font-family: monospace"">+</span>","null","fixation","","","","",""
"","91","audio-keyboard-response","259","548236","0.0-3.0-1.206","../audio/47-1-fem.mp3"," ","","O","","","",""
"","829","audio-keyboard-response","260","549389","0.0-3.0-1.207","../audio/47-2-fem.mp3"," ","","tio","","","",""
"","1069","audio-keyboard-response","261","550802","0.0-3.0-1.208","../audio/47-3-fem.mp3"," ","","recusou","","","",""
"","651","audio-keyboard-response","262","551772","0.0-3.0-1.209","../audio/47-4-fem.mp3"," ","","a","","","",""
"","589","audio-keyboard-response","263","552808","0.0-3.0-1.210","../audio/47-5-fem.mp3"," ","","sobremesa","","","",""
"","768","audio-keyboard-response","264","554044","0.0-3.0-1.211","../audio/47-6-fem.mp3"," ","","no","","","",""
"","1141","audio-keyboard-response","265","555546","0.0-3.0-1.212","../audio/47-7-fem.mp3"," ","","almoço.","","","",""
"","null","html-keyboard-response","266","556807","0.0-3.0-0.213-0.213","<span style= ""font-size:30px; font-family: monospace"">+</span>","null","fixation","","","","",""
"","259","audio-keyboard-response","267","557525","0.0-3.0-1.213","../audio/48-1-masc.mp3"," ","","Ela","","","",""
"","1131","audio-keyboard-response","268","559075","0.0-3.0-1.214","../audio/48-2-masc.mp3"," ","","come","","","",""
"","1051","audio-keyboard-response","269","560440","0.0-3.0-1.215","../audio/48-3-masc.mp3"," ","","feijão","","","",""
"","840","audio-keyboard-response","270","561646","0.0-3.0-1.216","../audio/48-4-masc.mp3"," ","","com","","","",""
"","989","audio-keyboard-response","271","563012","0.0-3.0-1.217","../audio/48-5-masc.mp3"," ","","arroz","","","",""
"","739","audio-keyboard-response","272","564259","0.0-3.0-1.218","../audio/48-6-masc.mp3"," ","","todos","","","",""
"","749","audio-keyboard-response","273","565351","0.0-3.0-1.219","../audio/48-7-masc.mp3"," ","","os","","","",""
"","731","audio-keyboard-response","274","566466","0.0-3.0-1.220","../audio/48-8-masc.mp3"," ","","dias.","","","",""
"","null","html-keyboard-response","275","567723","0.0-3.0-0.221-0.221","<span style= ""font-size:30px; font-family: monospace"">+</span>","null","fixation","","","","",""
"","229","audio-keyboard-response","276","568470","0.0-3.0-1.221","../audio/50-1-masc.mp3"," ","","O","","","",""
"","819","audio-keyboard-response","277","569620","0.0-3.0-1.222","../audio/50-2-masc.mp3"," ","","pássaro","","","",""
"","891","audio-keyboard-response","278","570860","0.0-3.0-1.223","../audio/50-3-masc.mp3"," ","","fugiu","","","",""
"","691","audio-keyboard-response","279","571871","0.0-3.0-1.224","../audio/50-4-masc.mp3"," ","","da","","","",""
"","741","audio-keyboard-response","280","572998","0.0-3.0-1.225","../audio/50-5-masc.mp3"," ","","gaiola","","","",""
"","760","audio-keyboard-response","281","574158","0.0-3.0-1.226","../audio/50-6-masc.mp3"," ","","pela","","","",""
"","1000","audio-keyboard-response","282","575558","0.0-3.0-1.227","../audio/50-7-masc.mp3"," ","","portinhola.","","","",""
"","4461","html-keyboard-response","283","580278","0.0-3.0-2.227-0.227","<span style=""font-size:25px; font-family: monospace"">O pássaro fugiu da gaiola?</span>","s","","","O pássaro fugiu da gaiola?","null","exp-sent","false"
"","null","html-keyboard-response","284","581794","0.0-3.0-0.228-0.228","<span style= ""font-size:30px; font-family: monospace"">+</span>","null","fixation","","","","",""
"","709","audio-keyboard-response","285","582897","0.0-3.0-1.228","../audio/37-1-masc.mp3"," ","","Eu","","","",""
"","699","audio-keyboard-response","286","584006","0.0-3.0-1.229","../audio/37-2-masc.mp3"," ","","adoro","","","",""
"","829","audio-keyboard-response","287","585143","0.0-3.0-1.230","../audio/37-3-masc.mp3"," ","","suco","","","",""
"","771","audio-keyboard-response","288","586233","0.0-3.0-1.231","../audio/37-4-masc.mp3"," ","","de","","","",""
"","960","audio-keyboard-response","289","587525","0.0-3.0-1.232","../audio/37-5-masc.mp3"," ","","manga","","","",""
"","720","audio-keyboard-response","290","588572","0.0-3.0-1.233","../audio/37-6-masc.mp3"," ","","com","","","",""
"","949","audio-keyboard-response","291","589881","0.0-3.0-1.234","../audio/37-7-masc.mp3"," ","","hortelã.","","","",""
"","null","html-keyboard-response","292","591137","0.0-3.0-0.235-0.235","<span style= ""font-size:30px; font-family: monospace"">+</span>","null","fixation","","","","",""
"","861","audio-keyboard-response","293","592395","0.0-3.0-1.235","../audio/36-1-masc.mp3"," ","","Meu","","","",""
"","768","audio-keyboard-response","294","593489","0.0-3.0-1.236","../audio/36-2-masc.mp3"," ","","tio","","","",""
"","941","audio-keyboard-response","295","594789","0.0-3.0-1.237","../audio/36-3-masc.mp3"," ","","comprou","","","",""
"","760","audio-keyboard-response","296","595867","0.0-3.0-1.238","../audio/36-4-masc.mp3"," ","","um","","","",""
"","1019","audio-keyboard-response","297","597211","0.0-3.0-1.239","../audio/36-5-masc.mp3"," ","","filtro","","","",""
"","880","audio-keyboard-response","298","598406","0.0-3.0-1.240","../audio/36-6-masc.mp3"," ","","de","","","",""
"","992","audio-keyboard-response","299","599717","0.0-3.0-1.241","../audio/36-7-masc.mp3"," ","","água","","","",""
"","1101","audio-keyboard-response","300","601141","0.0-3.0-1.242","../audio/36-8-masc.mp3"," ","","hoje","","","",""
"","1069","audio-keyboard-response","301","602523","0.0-3.0-1.243","../audio/36-9-masc.mp3"," ","","cedo.","","","",""
"","null","html-keyboard-response","302","603802","0.0-3.0-0.244-0.244","<span style= ""font-size:30px; font-family: monospace"">+</span>","null","fixation","","","","",""
"","1501","audio-keyboard-response","303","607707","0.0-3.0-1.244","../audio/38-1-fem.mp3"," ","","A","","","",""
"","891","audio-keyboard-response","304","609039","0.0-3.0-1.245","../audio/38-2-fem.mp3"," ","","empresa","","","",""
"","920","audio-keyboard-response","305","610299","0.0-3.0-1.246","../audio/38-3-fem.mp3"," ","","criou","","","",""
"","789","audio-keyboard-response","306","611402","0.0-3.0-1.247","../audio/38-4-fem.mp3"," ","","a","","","",""
"","1181","audio-keyboard-response","307","612957","0.0-3.0-1.248","../audio/38-5-fem.mp3"," ","","patente","","","",""
"","600","audio-keyboard-response","308","614046","0.0-3.0-1.249","../audio/38-6-fem.mp3"," ","","da","","","",""
"","819","audio-keyboard-response","309","615215","0.0-3.0-1.250","../audio/38-7-fem.mp3"," ","","frigideira.","","","",""
"","null","html-keyboard-response","310","616493","0.0-3.0-0.251-0.251","<span style= ""font-size:30px; font-family: monospace"">+</span>","null","fixation","","","","",""
"","621","audio-keyboard-response","311","617513","0.0-3.0-1.251","../audio/39-1-masc.mp3"," ","","O","","","",""
"","741","audio-keyboard-response","312","618594","0.0-3.0-1.252","../audio/39-2-masc.mp3"," ","","conselho","","","",""
"","720","audio-keyboard-response","313","619675","0.0-3.0-1.253","../audio/39-3-masc.mp3"," ","","foi","","","",""
"","880","audio-keyboard-response","314","620899","0.0-3.0-1.254","../audio/39-4-masc.mp3"," ","","muito","","","",""
"","829","audio-keyboard-response","315","622058","0.0-3.0-1.255","../audio/39-5-masc.mp3"," ","","útil","","","",""
"","760","audio-keyboard-response","316","623147","0.0-3.0-1.256","../audio/39-6-masc.mp3"," ","","para","","","",""
"","880","audio-keyboard-response","317","624411","0.0-3.0-1.257","../audio/39-7-masc.mp3"," ","","minha","","","",""
"","981","audio-keyboard-response","318","625704","0.0-3.0-1.258","../audio/39-8-masc.mp3"," ","","tia.","","","",""
"","null","html-keyboard-response","319","626973","0.0-3.0-0.259-0.259","<span style= ""font-size:30px; font-family: monospace"">+</span>","null","fixation","","","","",""
"","720","audio-keyboard-response","320","628060","0.0-3.0-1.259","../audio/40-1-fem.mp3"," ","","O","","","",""
"","1059","audio-keyboard-response","321","629460","0.0-3.0-1.260","../audio/40-2-fem.mp3"," ","","jogo","","","",""
"","840","audio-keyboard-response","322","630660","0.0-3.0-1.261","../audio/40-3-fem.mp3"," ","","falava","","","",""
"","840","audio-keyboard-response","323","631828","0.0-3.0-1.262","../audio/40-4-fem.mp3"," ","","de","","","",""
"","779","audio-keyboard-response","324","632963","0.0-3.0-1.263","../audio/40-5-fem.mp3"," ","","fantasia","","","",""
"","859","audio-keyboard-response","325","634171","0.0-3.0-1.264","../audio/40-6-fem.mp3"," ","","e","","","",""
"","920","audio-keyboard-response","326","635442","0.0-3.0-1.265","../audio/40-7-fem.mp3"," ","","de","","","",""
"","1469","audio-keyboard-response","327","637482","0.0-3.0-1.266","../audio/40-8-fem.mp3"," ","","aventura.","","","",""
"","7473","html-keyboard-response","328","645209","0.0-3.0-2.266-0.266","<span style=""font-size:25px; font-family: monospace"">O jogo tinha fantasia e aventura?</span>","s","","","O jogo tinha fantasia e aventura?","null","exp-sent","false"
"","null","html-keyboard-response","329","646735","0.0-3.0-0.267-0.267","<span style= ""font-size:30px; font-family: monospace"">+</span>","null","fixation","","","","",""
"","661","audio-keyboard-response","330","647786","0.0-3.0-1.267","../audio/07-1-masc.mp3"," ","","Meu","","","",""
"","512","audio-keyboard-response","331","648716","0.0-3.0-1.268","../audio/07-2-masc.mp3"," ","","filho","","","",""
"","589","audio-keyboard-response","332","649668","0.0-3.0-1.269","../audio/07-3-masc.mp3"," ","","é","","","",""
"","459","audio-keyboard-response","333","650457","0.0-3.0-1.270","../audio/07-4-masc.mp3"," ","","muito","","","",""
"","451","audio-keyboard-response","334","651268","0.0-3.0-1.271","../audio/07-5-masc.mp3"," ","","responsável","","","",""
"","200","audio-keyboard-response","335","651785","0.0-3.0-1.272","../audio/07-6-masc.mp3"," ","","nos","","","",""
"","32","audio-keyboard-response","336","652153","0.0-3.0-1.273","../audio/07-7-masc.mp3"," ","","estudos.","","","",""
"","null","html-keyboard-response","337","653421","0.0-3.0-0.274-0.274","<span style= ""font-size:30px; font-family: monospace"">+</span>","null","fixation","","","","",""
"","11","audio-keyboard-response","338","653815","0.0-3.0-1.274","../audio/08-1-fem.mp3"," ","","A","","","",""
"","619","audio-keyboard-response","339","655009","0.0-3.0-1.275","../audio/08-2-fem.mp3"," ","","receita","","","",""
"","91","audio-keyboard-response","340","655415","0.0-3.0-1.276","../audio/08-3-fem.mp3"," ","","pede","","","",""
"","240","audio-keyboard-response","341","655971","0.0-3.0-1.277","../audio/08-4-fem.mp3"," ","","um","","","",""
"","261","audio-keyboard-response","342","656553","0.0-3.0-1.278","../audio/08-5-fem.mp3"," ","","litro","","","",""
"","221","audio-keyboard-response","343","657078","0.0-3.0-1.279","../audio/08-6-fem.mp3"," ","","de","","","",""
"","960","audio-keyboard-response","344","658391","0.0-3.0-1.280","../audio/08-7-fem.mp3"," ","","leite","","","",""
"","680","audio-keyboard-response","345","659408","0.0-3.0-1.281","../audio/08-8-fem.mp3"," ","","integral.","","","",""
"","null","html-keyboard-response","346","660668","0.0-3.0-0.282-0.282","<span style= ""font-size:30px; font-family: monospace"">+</span>","null","fixation","","","","",""
"","680","audio-keyboard-response","347","661748","0.0-3.0-1.282","../audio/06-1-fem.mp3"," ","","Ouvimos","","","",""
"","701","audio-keyboard-response","348","662835","0.0-3.0-1.283","../audio/06-2-fem.mp3"," ","","a","","","",""
"","811","audio-keyboard-response","349","664021","0.0-3.0-1.284","../audio/06-3-fem.mp3"," ","","fala","","","",""
"","651","audio-keyboard-response","350","665071","0.0-3.0-1.285","../audio/06-4-fem.mp3"," ","","do","","","",""
"","1141","audio-keyboard-response","351","666555","0.0-3.0-1.286","../audio/06-5-fem.mp3"," ","","profeta","","","",""
"","1019","audio-keyboard-response","352","667898","0.0-3.0-1.287","../audio/06-6-fem.mp3"," ","","no","","","",""
"","1059","audio-keyboard-response","353","669294","0.0-3.0-1.288","../audio/06-7-fem.mp3"," ","","púlpito","","","",""
"","741","audio-keyboard-response","354","670343","0.0-3.0-1.289","../audio/06-8-fem.mp3"," ","","da","","","",""
"","931","audio-keyboard-response","355","671614","0.0-3.0-1.290","../audio/06-9-fem.mp3"," ","","igreja.","","","",""
"","null","html-keyboard-response","356","672883","0.0-3.0-0.291-0.291","<span style= ""font-size:30px; font-family: monospace"">+</span>","null","fixation","","","","",""
"","779","audio-keyboard-response","357","676053","0.0-3.0-1.291","../audio/09-1-fem.mp3"," ","","O","","","",""
"","1160","audio-keyboard-response","358","677561","0.0-3.0-1.292","../audio/09-2-fem.mp3"," ","","rapaz","","","",""
"","872","audio-keyboard-response","359","678797","0.0-3.0-1.293","../audio/09-3-fem.mp3"," ","","limpou","","","",""
"","909","audio-keyboard-response","360","680029","0.0-3.0-1.294","../audio/09-4-fem.mp3"," ","","o","","","",""
"","1029","audio-keyboard-response","361","681413","0.0-3.0-1.295","../audio/09-5-fem.mp3"," ","","terreno","","","",""
"","760","audio-keyboard-response","362","682492","0.0-3.0-1.296","../audio/09-6-fem.mp3"," ","","com","","","",""
"","891","audio-keyboard-response","363","683700","0.0-3.0-1.297","../audio/09-7-fem.mp3"," ","","uma","","","",""
"","899","audio-keyboard-response","364","684966","0.0-3.0-1.298","../audio/09-8-fem.mp3"," ","","pá.","","","",""
"","null","html-keyboard-response","365","686228","0.0-3.0-0.299-0.299","<span style= ""font-size:30px; font-family: monospace"">+</span>","null","fixation","","","","",""
"","629","audio-keyboard-response","366","687221","0.0-3.0-1.299","../audio/10-1-fem.mp3"," ","","O","","","",""
"","701","audio-keyboard-response","367","688260","0.0-3.0-1.300","../audio/10-2-fem.mp3"," ","","pássaro","","","",""
"","829","audio-keyboard-response","368","689409","0.0-3.0-1.301","../audio/10-3-fem.mp3"," ","","azul","","","",""
"","760","audio-keyboard-response","369","690549","0.0-3.0-1.302","../audio/10-4-fem.mp3"," ","","estava","","","",""
"","699","audio-keyboard-response","370","691572","0.0-3.0-1.303","../audio/10-5-fem.mp3"," ","","vivo","","","",""
"","640","audio-keyboard-response","371","692532","0.0-3.0-1.304","../audio/10-6-fem.mp3"," ","","e","","","",""
"","701","audio-keyboard-response","372","693554","0.0-3.0-1.305","../audio/10-7-fem.mp3"," ","","em","","","",""
"","592","audio-keyboard-response","373","694672","0.0-3.0-1.306","../audio/10-8-fem.mp3"," ","","segurança.","","","",""
"","8517","html-keyboard-response","374","703445","0.0-3.0-2.306-0.306","<span style=""font-size:25px; font-family: monospace"">O pássaro vermelho estava em segurança?</span>","n","","","O pássaro vermelho estava em segurança?","null","exp-sent","false"
"","null","html-keyboard-response","375","704969","0.0-3.0-0.307-0.307","<span style= ""font-size:30px; font-family: monospace"">+</span>","null","fixation","","","","",""
"","648","audio-keyboard-response","376","706005","0.0-3.0-1.307","../audio/11-1-fem.mp3"," ","","Elas","","","",""
"","691","audio-keyboard-response","377","707038","0.0-3.0-1.308","../audio/11-2-fem.mp3"," ","","gostam","","","",""
"","928","audio-keyboard-response","378","708327","0.0-3.0-1.309","../audio/11-3-fem.mp3"," ","","muito","","","",""
"","699","audio-keyboard-response","379","709338","0.0-3.0-1.310","../audio/11-4-fem.mp3"," ","","de","","","",""
"","840","audio-keyboard-response","380","710556","0.0-3.0-1.311","../audio/11-5-fem.mp3"," ","","aritmética","","","",""
"","749","audio-keyboard-response","381","711661","0.0-3.0-1.312","../audio/11-6-fem.mp3"," ","","e","","","",""
"","829","audio-keyboard-response","382","712806","0.0-3.0-1.313","../audio/11-7-fem.mp3"," ","","de","","","",""
"","1331","audio-keyboard-response","383","714552","0.0-3.0-1.314","../audio/11-8-fem.mp3"," ","","leitura.","","","",""
"","null","html-keyboard-response","384","715828","0.0-3.0-0.315-0.315","<span style= ""font-size:30px; font-family: monospace"">+</span>","null","fixation","","","","",""
"","800","audio-keyboard-response","385","717018","0.0-3.0-1.315","../audio/13-1-fem.mp3"," ","","Para","","","",""
"","789","audio-keyboard-response","386","718168","0.0-3.0-1.316","../audio/13-2-fem.mp3"," ","","mim","","","",""
"","731","audio-keyboard-response","387","719225","0.0-3.0-1.317","../audio/13-3-fem.mp3"," ","","é","","","",""
"","992","audio-keyboard-response","388","720557","0.0-3.0-1.318","../audio/13-4-fem.mp3"," ","","muito","","","",""
"","1091","audio-keyboard-response","389","722011","0.0-3.0-1.319","../audio/13-5-fem.mp3"," ","","difícil","","","",""
"","1101","audio-keyboard-response","390","723465","0.0-3.0-1.320","../audio/13-6-fem.mp3"," ","","acordar","","","",""
"","1000","audio-keyboard-response","391","724957","0.0-3.0-1.321","../audio/13-7-fem.mp3"," ","","cedo.","","","",""
"","null","html-keyboard-response","392","726214","0.0-3.0-0.322-0.322","<span style= ""font-size:30px; font-family: monospace"">+</span>","null","fixation","","","","",""
"","912","audio-keyboard-response","393","727556","0.0-3.0-1.322","../audio/12-1-fem.mp3"," ","","O","","","",""
"","811","audio-keyboard-response","394","728706","0.0-3.0-1.323","../audio/12-2-fem.mp3"," ","","dia","","","",""
"","1011","audio-keyboard-response","395","730103","0.0-3.0-1.324","../audio/12-3-fem.mp3"," ","","estava","","","",""
"","2549","audio-keyboard-response","396","732976","0.0-3.0-1.325","../audio/12-4-fem.mp3"," ","","quente,","","","",""
"","1291","audio-keyboard-response","397","734664","0.0-3.0-1.326","../audio/12-5-fem.mp3"," ","","tranquilo","","","",""
"","752","audio-keyboard-response","398","735837","0.0-3.0-1.327","../audio/12-6-fem.mp3"," ","","e","","","",""
"","1469","audio-keyboard-response","399","737689","0.0-3.0-1.328","../audio/12-7-fem.mp3"," ","","ensolarado.","","","",""
"","null","html-keyboard-response","400","738955","0.0-3.0-0.329-0.329","<span style= ""font-size:30px; font-family: monospace"">+</span>","null","fixation","","","","",""
"","149","audio-keyboard-response","401","741485","0.0-3.0-1.329","../audio/14-1-fem.mp3"," ","","O","","","",""
"","1109","audio-keyboard-response","402","743013","0.0-3.0-1.330","../audio/14-2-fem.mp3"," ","","cachorro","","","",""
"","899","audio-keyboard-response","403","744290","0.0-3.0-1.331","../audio/14-3-fem.mp3"," ","","é","","","",""
"","971","audio-keyboard-response","404","745589","0.0-3.0-1.332","../audio/14-4-fem.mp3"," ","","muito","","","",""
"","939","audio-keyboard-response","405","746852","0.0-3.0-1.333","../audio/14-5-fem.mp3"," ","","fiel","","","",""
"","621","audio-keyboard-response","406","747791","0.0-3.0-1.334","../audio/14-6-fem.mp3"," ","","a","","","",""
"","1299","audio-keyboard-response","407","749446","0.0-3.0-1.335","../audio/14-7-fem.mp3"," ","","seus","","","",""
"","960","audio-keyboard-response","408","750852","0.0-3.0-1.336","../audio/14-8-fem.mp3"," ","","donos.","","","",""
"","null","html-keyboard-response","409","752135","0.0-3.0-0.337-0.337","<span style= ""font-size:30px; font-family: monospace"">+</span>","null","fixation","","","","",""
"","189","audio-keyboard-response","410","752740","0.0-3.0-1.337","../audio/15-1-fem.mp3"," ","","Meu","","","",""
"","891","audio-keyboard-response","411","754195","0.0-3.0-1.338","../audio/15-2-fem.mp3"," ","","primo","","","",""
"","779","audio-keyboard-response","412","755369","0.0-3.0-1.339","../audio/15-3-fem.mp3"," ","","é","","","",""
"","829","audio-keyboard-response","413","756522","0.0-3.0-1.340","../audio/15-4-fem.mp3"," ","","um","","","",""
"","1080","audio-keyboard-response","414","757951","0.0-3.0-1.341","../audio/15-5-fem.mp3"," ","","grande","","","",""
"","1421","audio-keyboard-response","415","759751","0.0-3.0-1.342","../audio/15-6-fem.mp3"," ","","vendedor","","","",""
"","1040","audio-keyboard-response","416","761128","0.0-3.0-1.343","../audio/15-7-fem.mp3"," ","","de","","","",""
"","1040","audio-keyboard-response","417","762518","0.0-3.0-1.344","../audio/15-8-fem.mp3"," ","","carros.","","","",""
"","4367","html-keyboard-response","418","767140","0.0-3.0-2.344-0.344","<span style=""font-size:25px; font-family: monospace"">O primo é um vendedor de carros?</span>","s","","","O primo é um vendedor de carros?","null","exp-sent","false"
"","null","html-keyboard-response","419","768654","0.0-3.0-0.345-0.345","<span style= ""font-size:30px; font-family: monospace"">+</span>","null","fixation","","","","",""
"","669","audio-keyboard-response","420","769699","0.0-3.0-1.345","../audio/22-1-masc.mp3"," ","","Eu","","","",""
"","928","audio-keyboard-response","421","771048","0.0-3.0-1.346","../audio/22-2-masc.mp3"," ","","detesto","","","",""
"","739","audio-keyboard-response","422","772122","0.0-3.0-1.347","../audio/22-3-masc.mp3"," ","","fumaça","","","",""
"","709","audio-keyboard-response","423","773149","0.0-3.0-1.348","../audio/22-4-masc.mp3"," ","","de","","","",""
"","960","audio-keyboard-response","424","774539","0.0-3.0-1.349","../audio/22-5-masc.mp3"," ","","cachimbo","","","",""
"","720","audio-keyboard-response","425","775581","0.0-3.0-1.350","../audio/22-6-masc.mp3"," ","","e","","","",""
"","621","audio-keyboard-response","426","776597","0.0-3.0-1.351","../audio/22-7-masc.mp3"," ","","de","","","",""
"","480","audio-keyboard-response","427","777574","0.0-3.0-1.352","../audio/22-8-masc.mp3"," ","","cigarro.","","","",""
"","null","html-keyboard-response","428","778828","0.0-3.0-0.353-0.353","<span style= ""font-size:30px; font-family: monospace"">+</span>","null","fixation","","","","",""
"","829","audio-keyboard-response","429","780063","0.0-3.0-1.353","../audio/24-1-masc.mp3"," ","","As","","","",""
"","760","audio-keyboard-response","430","781202","0.0-3.0-1.354","../audio/24-2-masc.mp3"," ","","crianças","","","",""
"","731","audio-keyboard-response","431","782262","0.0-3.0-1.355","../audio/24-3-masc.mp3"," ","","vão","","","",""
"","731","audio-keyboard-response","432","783345","0.0-3.0-1.356","../audio/24-4-masc.mp3"," ","","ao","","","",""
"","840","audio-keyboard-response","433","784657","0.0-3.0-1.357","../audio/24-5-masc.mp3"," ","","cinema","","","",""
"","869","audio-keyboard-response","434","785867","0.0-3.0-1.358","../audio/24-6-masc.mp3"," ","","mais","","","",""
"","851","audio-keyboard-response","435","787074","0.0-3.0-1.359","../audio/24-7-masc.mp3"," ","","tarde.","","","",""
"","null","html-keyboard-response","436","788343","0.0-3.0-0.360-0.360","<span style= ""font-size:30px; font-family: monospace"">+</span>","null","fixation","","","","",""
"","400","audio-keyboard-response","437","789211","0.0-3.0-1.360","../audio/21-1-fem.mp3"," ","","Precisamos","","","",""
"","829","audio-keyboard-response","438","790347","0.0-3.0-1.361","../audio/21-2-fem.mp3"," ","","de","","","",""
"","920","audio-keyboard-response","439","791695","0.0-3.0-1.362","../audio/21-3-fem.mp3"," ","","paciência","","","",""
"","691","audio-keyboard-response","440","792971","0.0-3.0-1.363","../audio/21-4-fem.mp3"," ","","e","","","",""
"","749","audio-keyboard-response","441","794282","0.0-3.0-1.364","../audio/21-5-fem.mp3"," ","","bondade","","","",""
"","720","audio-keyboard-response","442","795410","0.0-3.0-1.365","../audio/21-6-fem.mp3"," ","","para","","","",""
"","891","audio-keyboard-response","443","796635","0.0-3.0-1.366","../audio/21-7-fem.mp3"," ","","um","","","",""
"","1091","audio-keyboard-response","444","798073","0.0-3.0-1.367","../audio/21-8-fem.mp3"," ","","mundo","","","",""
"","1219","audio-keyboard-response","445","799734","0.0-3.0-1.368","../audio/21-9-fem.mp3"," ","","melhor.","","","",""
"","null","html-keyboard-response","446","801004","0.0-3.0-0.369-0.369","<span style= ""font-size:30px; font-family: monospace"">+</span>","null","fixation","","","","",""
"","861","audio-keyboard-response","447","804313","0.0-3.0-1.369","../audio/23-1-fem.mp3"," ","","Português","","","",""
"","760","audio-keyboard-response","448","805461","0.0-3.0-1.370","../audio/23-2-fem.mp3"," ","","é","","","",""
"","760","audio-keyboard-response","449","807158","0.0-3.0-1.371","../audio/23-3-fem.mp3"," ","","um","","","",""
"","989","audio-keyboard-response","450","808888","0.0-3.0-1.372","../audio/23-4-fem.mp3"," ","","assunto","","","",""
"","851","audio-keyboard-response","451","810299","0.0-3.0-1.373","../audio/23-5-fem.mp3"," ","","elementar","","","",""
"","1011","audio-keyboard-response","452","811709","0.0-3.0-1.374","../audio/23-6-fem.mp3"," ","","para","","","",""
"","811","audio-keyboard-response","453","812960","0.0-3.0-1.375","../audio/23-7-fem.mp3"," ","","os","","","",""
"","1019","audio-keyboard-response","454","814446","0.0-3.0-1.376","../audio/23-8-fem.mp3"," ","","alunos.","","","",""
"","null","html-keyboard-response","455","815702","0.0-3.0-0.377-0.377","<span style= ""font-size:30px; font-family: monospace"">+</span>","null","fixation","","","","",""
"","869","audio-keyboard-response","456","817025","0.0-3.0-1.377","../audio/25-1-masc.mp3"," ","","Ela","","","",""
"","931","audio-keyboard-response","457","818331","0.0-3.0-1.378","../audio/25-2-masc.mp3"," ","","faz","","","",""
"","920","audio-keyboard-response","458","819588","0.0-3.0-1.379","../audio/25-3-masc.mp3"," ","","tanto","","","",""
"","971","audio-keyboard-response","459","820915","0.0-3.0-1.380","../audio/25-4-masc.mp3"," ","","cabelo","","","",""
"","901","audio-keyboard-response","460","822196","0.0-3.0-1.381","../audio/25-5-masc.mp3"," ","","liso","","","",""
"","949","audio-keyboard-response","461","823509","0.0-3.0-1.382","../audio/25-6-masc.mp3"," ","","quanto","","","",""
"","1059","audio-keyboard-response","462","824976","0.0-3.0-1.383","../audio/25-7-masc.mp3"," ","","cacheado.","","","",""
"","6233","html-keyboard-response","463","831464","0.0-3.0-2.383-0.383","<span style=""font-size:25px; font-family: monospace"">Ela só faz cabelo cacheado?</span>","n","","","Ela só faz cabelo cacheado?","null","exp-sent","false"
"","null","html-keyboard-response","464","832978","0.0-3.0-0.384-0.384","<span style= ""font-size:30px; font-family: monospace"">+</span>","null","fixation","","","","",""
"","568","audio-keyboard-response","465","833961","0.0-3.0-1.384","../audio/34-1-fem.mp3"," ","","Cobrança","","","",""
"","728","audio-keyboard-response","466","835040","0.0-3.0-1.385","../audio/34-2-fem.mp3"," ","","excessiva","","","",""
"","560","audio-keyboard-response","467","835944","0.0-3.0-1.386","../audio/34-3-fem.mp3"," ","","é","","","",""
"","240","audio-keyboard-response","468","836508","0.0-3.0-1.387","../audio/34-4-fem.mp3"," ","","um","","","",""
"","200","audio-keyboard-response","469","837051","0.0-3.0-1.388","../audio/34-5-fem.mp3"," ","","fardo","","","",""
"","200","audio-keyboard-response","470","837581","0.0-3.0-1.389","../audio/34-6-fem.mp3"," ","","para","","","",""
"","179","audio-keyboard-response","471","838087","0.0-3.0-1.390","../audio/34-7-fem.mp3"," ","","a","","","",""
"","120","audio-keyboard-response","472","838551","0.0-3.0-1.391","../audio/34-8-fem.mp3"," ","","cabeça.","","","",""
"","null","html-keyboard-response","473","839814","0.0-3.0-0.392-0.392","<span style= ""font-size:30px; font-family: monospace"">+</span>","null","fixation","","","","",""
"","691","audio-keyboard-response","474","840838","0.0-3.0-1.392","../audio/31-1-fem.mp3"," ","","O","","","",""
"","509","audio-keyboard-response","475","841688","0.0-3.0-1.393","../audio/31-2-fem.mp3"," ","","padeiro","","","",""
"","880","audio-keyboard-response","476","842901","0.0-3.0-1.394","../audio/31-3-fem.mp3"," ","","usou","","","",""
"","621","audio-keyboard-response","477","843834","0.0-3.0-1.395","../audio/31-4-fem.mp3"," ","","a","","","",""
"","749","audio-keyboard-response","478","845047","0.0-3.0-1.396","../audio/31-5-fem.mp3"," ","","balança","","","",""
"","739","audio-keyboard-response","479","846091","0.0-3.0-1.397","../audio/31-6-fem.mp3"," ","","o","","","",""
"","949","audio-keyboard-response","480","847415","0.0-3.0-1.398","../audio/31-7-fem.mp3"," ","","dia","","","",""
"","1120","audio-keyboard-response","481","848882","0.0-3.0-1.399","../audio/31-8-fem.mp3"," ","","inteiro.","","","",""
"","null","html-keyboard-response","482","850140","0.0-3.0-0.400-0.400","<span style= ""font-size:30px; font-family: monospace"">+</span>","null","fixation","","","","",""
"","661","audio-keyboard-response","483","851235","0.0-3.0-1.400","../audio/32-1-fem.mp3"," ","","A","","","",""
"","891","audio-keyboard-response","484","852452","0.0-3.0-1.401","../audio/32-2-fem.mp3"," ","","tia","","","",""
"","960","audio-keyboard-response","485","853723","0.0-3.0-1.402","../audio/32-3-fem.mp3"," ","","comprou","","","",""
"","691","audio-keyboard-response","486","854810","0.0-3.0-1.403","../audio/32-4-fem.mp3"," ","","um","","","",""
"","952","audio-keyboard-response","487","856115","0.0-3.0-1.404","../audio/32-5-fem.mp3"," ","","pilão","","","",""
"","859","audio-keyboard-response","488","857296","0.0-3.0-1.405","../audio/32-6-fem.mp3"," ","","para","","","",""
"","720","audio-keyboard-response","489","858338","0.0-3.0-1.406","../audio/32-7-fem.mp3"," ","","a","","","",""
"","789","audio-keyboard-response","490","859497","0.0-3.0-1.407","../audio/32-8-fem.mp3"," ","","cozinha.","","","",""
"","null","html-keyboard-response","491","860757","0.0-3.0-0.408-0.408","<span style= ""font-size:30px; font-family: monospace"">+</span>","null","fixation","","","","",""
"","8","audio-keyboard-response","492","861166","0.0-3.0-1.408","../audio/33-1-fem.mp3"," ","","Eles","","","",""
"","1131","audio-keyboard-response","493","862662","0.0-3.0-1.409","../audio/33-2-fem.mp3"," ","","sabem","","","",""
"","800","audio-keyboard-response","494","863783","0.0-3.0-1.410","../audio/33-3-fem.mp3"," ","","do","","","",""
"","939","audio-keyboard-response","495","867211","0.0-3.0-1.411","../audio/33-4-fem.mp3"," ","","seu","","","",""
"","1432","audio-keyboard-response","496","868997","0.0-3.0-1.412","../audio/33-5-fem.mp3"," ","","privilégio","","","",""
"","1120","audio-keyboard-response","497","870461","0.0-3.0-1.413","../audio/33-6-fem.mp3"," ","","nessa","","","",""
"","1331","audio-keyboard-response","498","872150","0.0-3.0-1.414","../audio/33-7-fem.mp3"," ","","confusão.","","","",""
"","null","html-keyboard-response","499","873413","0.0-3.0-0.415-0.415","<span style= ""font-size:30px; font-family: monospace"">+</span>","null","fixation","","","","",""
"","149","audio-keyboard-response","500","874040","0.0-3.0-1.415","../audio/35-1-masc.mp3"," ","","A","","","",""
"","1091","audio-keyboard-response","501","875502","0.0-3.0-1.416","../audio/35-2-masc.mp3"," ","","receita","","","",""
"","920","audio-keyboard-response","502","876762","0.0-3.0-1.417","../audio/35-3-masc.mp3"," ","","para","","","",""
"","861","audio-keyboard-response","503","877940","0.0-3.0-1.418","../audio/35-4-masc.mp3"," ","","a","","","",""
"","1008","audio-keyboard-response","504","879327","0.0-3.0-1.419","../audio/35-5-masc.mp3"," ","","preparação","","","",""
"","829","audio-keyboard-response","505","880468","0.0-3.0-1.420","../audio/35-6-masc.mp3"," ","","do","","","",""
"","981","audio-keyboard-response","506","881753","0.0-3.0-1.421","../audio/35-7-masc.mp3"," ","","bolo","","","",""
"","749","audio-keyboard-response","507","882826","0.0-3.0-1.422","../audio/35-8-masc.mp3"," ","","é","","","",""
"","891","audio-keyboard-response","508","884056","0.0-3.0-1.423","../audio/35-9-masc.mp3"," ","","leve.","","","",""
"","3509","html-keyboard-response","509","887824","0.0-3.0-2.423-0.423","<span style=""font-size:25px; font-family: monospace"">A receita do bolo é pesada?</span>","n","","","A receita do bolo é pesada?","null","exp-sent","false"
"","null","html-keyboard-response","510","889332","0.0-3.0-0.424-0.424","<span style= ""font-size:30px; font-family: monospace"">+</span>","null","fixation","","","","",""
"","579","audio-keyboard-response","511","890409","0.0-3.0-1.424","../audio/53-1-masc.mp3"," ","","O","","","",""
"","960","audio-keyboard-response","512","891707","0.0-3.0-1.425","../audio/53-2-masc.mp3"," ","","médico","","","",""
"","709","audio-keyboard-response","513","892744","0.0-3.0-1.426","../audio/53-3-masc.mp3"," ","","foi","","","",""
"","1141","audio-keyboard-response","514","894230","0.0-3.0-1.427","../audio/53-4-masc.mp3"," ","","bastante","","","",""
"","909","audio-keyboard-response","515","895614","0.0-3.0-1.428","../audio/53-5-masc.mp3"," ","","preciso","","","",""
"","1000","audio-keyboard-response","516","896947","0.0-3.0-1.429","../audio/53-6-masc.mp3"," ","","durante","","","",""
"","669","audio-keyboard-response","517","897934","0.0-3.0-1.430","../audio/53-7-masc.mp3"," ","","a","","","",""
"","1141","audio-keyboard-response","518","899436","0.0-3.0-1.431","../audio/53-8-masc.mp3"," ","","cirurgia.","","","",""
"","null","html-keyboard-response","519","900704","0.0-3.0-0.432-0.432","<span style= ""font-size:30px; font-family: monospace"">+</span>","null","fixation","","","","",""
"","941","audio-keyboard-response","520","902023","0.0-3.0-1.432","../audio/51-1-masc.mp3"," ","","Suco","","","",""
"","781","audio-keyboard-response","521","903139","0.0-3.0-1.433","../audio/51-2-masc.mp3"," ","","de","","","",""
"","992","audio-keyboard-response","522","904629","0.0-3.0-1.434","../audio/51-3-masc.mp3"," ","","acerola","","","",""
"","680","audio-keyboard-response","523","905634","0.0-3.0-1.435","../audio/51-4-masc.mp3"," ","","é","","","",""
"","840","audio-keyboard-response","524","906862","0.0-3.0-1.436","../audio/51-5-masc.mp3"," ","","azedo","","","",""
"","640","audio-keyboard-response","525","907820","0.0-3.0-1.437","../audio/51-6-masc.mp3"," ","","e","","","",""
"","869","audio-keyboard-response","526","909005","0.0-3.0-1.438","../audio/51-7-masc.mp3"," ","","até","","","",""
"","840","audio-keyboard-response","527","910173","0.0-3.0-1.439","../audio/51-8-masc.mp3"," ","","barato.","","","",""
"","null","html-keyboard-response","528","911451","0.0-3.0-0.440-0.440","<span style= ""font-size:30px; font-family: monospace"">+</span>","null","fixation","","","","",""
"","568","audio-keyboard-response","529","912399","0.0-3.0-1.440","../audio/52-1-masc.mp3"," ","","Às","","","",""
"","861","audio-keyboard-response","530","913673","0.0-3.0-1.441","../audio/52-2-masc.mp3"," ","","vezes","","","",""
"","720","audio-keyboard-response","531","914776","0.0-3.0-1.442","../audio/52-3-masc.mp3"," ","","eu","","","",""
"","731","audio-keyboard-response","532","915817","0.0-3.0-1.443","../audio/52-4-masc.mp3"," ","","tenho","","","",""
"","1000","audio-keyboard-response","533","917164","0.0-3.0-1.444","../audio/52-5-masc.mp3"," ","","azia","","","",""
"","781","audio-keyboard-response","534","918267","0.0-3.0-1.445","../audio/52-6-masc.mp3"," ","","depois","","","",""
"","800","audio-keyboard-response","535","919437","0.0-3.0-1.446","../audio/52-7-masc.mp3"," ","","da","","","",""
"","1160","audio-keyboard-response","536","920899","0.0-3.0-1.447","../audio/52-8-masc.mp3"," ","","janta.","","","",""
"","null","html-keyboard-response","537","922160","0.0-3.0-0.448-0.448","<span style= ""font-size:30px; font-family: monospace"">+</span>","null","fixation","","","","",""
"","880","audio-keyboard-response","538","923481","0.0-3.0-1.448","../audio/54-1-masc.mp3"," ","","Estou","","","",""
"","691","audio-keyboard-response","539","924598","0.0-3.0-1.449","../audio/54-2-masc.mp3"," ","","com","","","",""
"","979","audio-keyboard-response","540","925897","0.0-3.0-1.450","../audio/54-3-masc.mp3"," ","","medo","","","",""
"","669","audio-keyboard-response","541","926883","0.0-3.0-1.451","../audio/54-4-masc.mp3"," ","","da","","","",""
"","981","audio-keyboard-response","542","928181","0.0-3.0-1.452","../audio/54-5-masc.mp3"," ","","atual","","","",""
"","1451","audio-keyboard-response","543","929984","0.0-3.0-1.453","../audio/54-6-masc.mp3"," ","","organização","","","",""
"","960","audio-keyboard-response","544","931272","0.0-3.0-1.454","../audio/54-7-masc.mp3"," ","","do","","","",""
"","872","audio-keyboard-response","545","932471","0.0-3.0-1.455","../audio/54-8-masc.mp3"," ","","país.","","","",""
"","null","html-keyboard-response","546","933740","0.0-3.0-0.456-0.456","<span style= ""font-size:30px; font-family: monospace"">+</span>","null","fixation","","","","",""
"","760","audio-keyboard-response","547","936924","0.0-3.0-1.456","../audio/55-1-masc.mp3"," ","","O","","","",""
"","1189","audio-keyboard-response","548","938444","0.0-3.0-1.457","../audio/55-2-masc.mp3"," ","","insulto","","","",""
"","960","audio-keyboard-response","549","939753","0.0-3.0-1.458","../audio/55-3-masc.mp3"," ","","recente","","","",""
"","1109","audio-keyboard-response","550","941179","0.0-3.0-1.459","../audio/55-4-masc.mp3"," ","","causou","","","",""
"","1200","audio-keyboard-response","551","942716","0.0-3.0-1.460","../audio/55-5-masc.mp3"," ","","indignação","","","",""
"","931","audio-keyboard-response","552","943971","0.0-3.0-1.461","../audio/55-6-masc.mp3"," ","","em","","","",""
"","739","audio-keyboard-response","553","945209","0.0-3.0-1.462","../audio/55-7-masc.mp3"," ","","todos.","","","",""
"","5349","html-keyboard-response","554","950813","0.0-3.0-2.462-0.462","<span style=""font-size:25px; font-family: monospace"">O insulto causou calmaria?</span>","n","","","O insulto causou calmaria?","null","exp-sent","false"
"","null","html-keyboard-response","555","952319","0.0-3.0-0.463-0.463","<span style= ""font-size:30px; font-family: monospace"">+</span>","null","fixation","","","","",""
"","469","audio-keyboard-response","556","953174","0.0-3.0-1.463","../audio/01-1-masc.mp3"," ","","O","","","",""
"","448","audio-keyboard-response","557","953999","0.0-3.0-1.464","../audio/01-2-masc.mp3"," ","","menino","","","",""
"","109","audio-keyboard-response","558","954445","0.0-3.0-1.465","../audio/01-3-masc.mp3"," ","","derrubou","","","",""
"","141","audio-keyboard-response","559","954906","0.0-3.0-1.466","../audio/01-4-masc.mp3"," ","","a","","","",""
"","29","audio-keyboard-response","560","955299","0.0-3.0-1.467","../audio/01-5-masc.mp3"," ","","guitarra","","","",""
"","91","audio-keyboard-response","561","955707","0.0-3.0-1.468","../audio/01-6-masc.mp3"," ","","no","","","",""
"","91","audio-keyboard-response","562","956117","0.0-3.0-1.469","../audio/01-7-masc.mp3"," ","","chão.","","","",""
"","null","html-keyboard-response","563","957395","0.0-3.0-0.470-0.470","<span style= ""font-size:30px; font-family: monospace"">+</span>","null","fixation","","","","",""
"","741","audio-keyboard-response","564","958470","0.0-3.0-1.470","../audio/04-1-fem.mp3"," ","","Duzentos","","","",""
"","771","audio-keyboard-response","565","959570","0.0-3.0-1.471","../audio/04-2-fem.mp3"," ","","carros","","","",""
"","680","audio-keyboard-response","566","960717","0.0-3.0-1.472","../audio/04-3-fem.mp3"," ","","passaram","","","",""
"","568","audio-keyboard-response","567","961603","0.0-3.0-1.473","../audio/04-4-fem.mp3"," ","","pela","","","",""
"","528","audio-keyboard-response","568","962447","0.0-3.0-1.474","../audio/04-5-fem.mp3"," ","","ponte","","","",""
"","640","audio-keyboard-response","569","963500","0.0-3.0-1.475","../audio/04-6-fem.mp3"," ","","hoje","","","",""
"","592","audio-keyboard-response","570","964475","0.0-3.0-1.476","../audio/04-7-fem.mp3"," ","","de","","","",""
"","720","audio-keyboard-response","571","965522","0.0-3.0-1.477","../audio/04-8-fem.mp3"," ","","tarde.","","","",""
"","null","html-keyboard-response","572","966789","0.0-3.0-0.478-0.478","<span style= ""font-size:30px; font-family: monospace"">+</span>","null","fixation","","","","",""
"","179","audio-keyboard-response","573","967366","0.0-3.0-1.478","../audio/02-2-masc.mp3"," ","","Havia","","","",""
"","811","audio-keyboard-response","574","968429","0.0-3.0-1.479","../audio/02-2-masc.mp3"," ","","um","","","",""
"","880","audio-keyboard-response","575","969621","0.0-3.0-1.480","../audio/02-3-masc.mp3"," ","","cheiro","","","",""
"","680","audio-keyboard-response","576","970613","0.0-3.0-1.481","../audio/02-4-masc.mp3"," ","","de","","","",""
"","619","audio-keyboard-response","577","971573","0.0-3.0-1.482","../audio/02-5-masc.mp3"," ","","gasolina","","","",""
"","981","audio-keyboard-response","578","972861","0.0-3.0-1.483","../audio/02-6-masc.mp3"," ","","na","","","",""
"","1011","audio-keyboard-response","579","974221","0.0-3.0-1.484","../audio/02-7-masc.mp3"," ","","garagem.","","","",""
"","null","html-keyboard-response","580","975491","0.0-3.0-0.485-0.485","<span style= ""font-size:30px; font-family: monospace"">+</span>","null","fixation","","","","",""
"","501","audio-keyboard-response","581","976385","0.0-3.0-1.485","../audio/03-1-masc.mp3"," ","","O","","","",""
"","520","audio-keyboard-response","582","977239","0.0-3.0-1.486","../audio/03-2-masc.mp3"," ","","coelho","","","",""
"","781","audio-keyboard-response","583","978347","0.0-3.0-1.487","../audio/03-3-masc.mp3"," ","","foi","","","",""
"","979","audio-keyboard-response","584","979682","0.0-3.0-1.488","../audio/03-4-masc.mp3"," ","","bastante","","","",""
"","869","audio-keyboard-response","585","980863","0.0-3.0-1.489","../audio/03-5-masc.mp3"," ","","dócil","","","",""
"","712","audio-keyboard-response","586","981918","0.0-3.0-1.490","../audio/03-6-masc.mp3"," ","","com","","","",""
"","880","audio-keyboard-response","587","983121","0.0-3.0-1.491","../audio/03-7-masc.mp3"," ","","as","","","",""
"","1000","audio-keyboard-response","588","984476","0.0-3.0-1.492","../audio/03-8-masc.mp3"," ","","crianças.","","","",""
"","null","html-keyboard-response","589","985747","0.0-3.0-0.493-0.493","<span style= ""font-size:30px; font-family: monospace"">+</span>","null","fixation","","","","",""
"","80","audio-keyboard-response","590","986278","0.0-3.0-1.493","../audio/05-1-fem.mp3"," ","","A","","","",""
"","1061","audio-keyboard-response","591","987755","0.0-3.0-1.494","../audio/05-2-fem.mp3"," ","","vendedora","","","",""
"","931","audio-keyboard-response","592","989022","0.0-3.0-1.495","../audio/05-3-fem.mp3"," ","","ajudou","","","",""
"","819","audio-keyboard-response","593","990174","0.0-3.0-1.496","../audio/05-4-fem.mp3"," ","","um","","","",""
"","1251","audio-keyboard-response","594","991894","0.0-3.0-1.497","../audio/05-5-fem.mp3"," ","","turista","","","",""
"","749","audio-keyboard-response","595","994772","0.0-3.0-1.498","../audio/05-6-fem.mp3"," ","","na","","","",""
"","931","audio-keyboard-response","596","996175","0.0-3.0-1.499","../audio/05-7-fem.mp3"," ","","loja.","","","",""
"","4612","html-keyboard-response","597","1001040","0.0-3.0-2.499-0.499","<span style=""font-size:25px; font-family: monospace"">A vendedora ajudou um turista?</span>","s","","","A vendedora ajudou um turista?","null","exp-sent","false"
"","null","html-keyboard-response","598","1002555","0.0-3.0-0.500-0.500","<span style= ""font-size:30px; font-family: monospace"">+</span>","null","fixation","","","","",""
"","632","audio-keyboard-response","599","1005757","0.0-3.0-1.500","../audio/26-1-fem.mp3"," ","","Amanhã","","","",""
"","1000","audio-keyboard-response","600","1007097","0.0-3.0-1.501","../audio/26-2-fem.mp3"," ","","temos","","","",""
"","960","audio-keyboard-response","601","1008407","0.0-3.0-1.502","../audio/26-3-fem.mp3"," ","","festa","","","",""
"","821","audio-keyboard-response","602","1009551","0.0-3.0-1.503","../audio/26-4-fem.mp3"," ","","na","","","",""
"","1160","audio-keyboard-response","603","1011069","0.0-3.0-1.504","../audio/26-5-fem.mp3"," ","","piscina","","","",""
"","768","audio-keyboard-response","604","1012161","0.0-3.0-1.505","../audio/26-6-fem.mp3"," ","","o","","","",""
"","739","audio-keyboard-response","605","1013372","0.0-3.0-1.506","../audio/26-7-fem.mp3"," ","","dia","","","",""
"","752","audio-keyboard-response","606","1014508","0.0-3.0-1.507","../audio/26-8-fem.mp3"," ","","todo.","","","",""
"","null","html-keyboard-response","607","1015769","0.0-3.0-0.508-0.508","<span style= ""font-size:30px; font-family: monospace"">+</span>","null","fixation","","","","",""
"","800","audio-keyboard-response","608","1016989","0.0-3.0-1.508","../audio/27-1-fem.mp3"," ","","O","","","",""
"","1069","audio-keyboard-response","609","1018417","0.0-3.0-1.509","../audio/27-2-fem.mp3"," ","","dinheiro","","","",""
"","931","audio-keyboard-response","610","1019690","0.0-3.0-1.510","../audio/27-3-fem.mp3"," ","","chegou","","","",""
"","720","audio-keyboard-response","611","1020732","0.0-3.0-1.511","../audio/27-4-fem.mp3"," ","","à","","","",""
"","1272","audio-keyboard-response","612","1022350","0.0-3.0-1.512","../audio/27-5-fem.mp3"," ","","elite","","","",""
"","920","audio-keyboard-response","613","1023599","0.0-3.0-1.513","../audio/27-6-fem.mp3"," ","","deste","","","",""
"","1152","audio-keyboard-response","614","1025151","0.0-3.0-1.514","../audio/27-7-fem.mp3"," ","","país.","","","",""
"","null","html-keyboard-response","615","1026409","0.0-3.0-0.515-0.515","<span style= ""font-size:30px; font-family: monospace"">+</span>","null","fixation","","","","",""
"","149","audio-keyboard-response","616","1026976","0.0-3.0-1.515","../audio/28-1-fem.mp3"," ","","O","","","",""
"","939","audio-keyboard-response","617","1028255","0.0-3.0-1.516","../audio/28-2-fem.mp3"," ","","time","","","",""
"","821","audio-keyboard-response","618","1029511","0.0-3.0-1.517","../audio/28-3-fem.mp3"," ","","quer","","","",""
"","741","audio-keyboard-response","619","1030627","0.0-3.0-1.518","../audio/28-4-fem.mp3"," ","","a","","","",""
"","1451","audio-keyboard-response","620","1032452","0.0-3.0-1.519","../audio/28-5-fem.mp3"," ","","vitória","","","",""
"","909","audio-keyboard-response","621","1033694","0.0-3.0-1.520","../audio/28-6-fem.mp3"," ","","no","","","",""
"","1120","audio-keyboard-response","622","1035307","0.0-3.0-1.521","../audio/28-7-fem.mp3"," ","","jogo","","","",""
"","901","audio-keyboard-response","623","1036594","0.0-3.0-1.522","../audio/28-8-fem.mp3"," ","","de","","","",""
"","1389","audio-keyboard-response","624","1038320","0.0-3.0-1.523","../audio/28-9-fem.mp3"," ","","vôlei.","","","",""
"","null","html-keyboard-response","625","1039581","0.0-3.0-0.524-0.524","<span style= ""font-size:30px; font-family: monospace"">+</span>","null","fixation","","","","",""
"","1059","audio-keyboard-response","626","1041046","0.0-3.0-1.524","../audio/29-1-masc.mp3"," ","","Hoje","","","",""
"","1069","audio-keyboard-response","627","1042460","0.0-3.0-1.525","../audio/29-2-masc.mp3"," ","","vamos","","","",""
"","909","audio-keyboard-response","628","1043690","0.0-3.0-1.526","../audio/29-3-masc.mp3"," ","","fazer","","","",""
"","821","audio-keyboard-response","629","1044868","0.0-3.0-1.527","../audio/29-4-masc.mp3"," ","","uma","","","",""
"","1411","audio-keyboard-response","630","1046637","0.0-3.0-1.528","../audio/29-5-masc.mp3"," ","","atividade","","","",""
"","1059","audio-keyboard-response","631","1048010","0.0-3.0-1.529","../audio/29-6-masc.mp3"," ","","sobre","","","",""
"","1131","audio-keyboard-response","632","1049466","0.0-3.0-1.530","../audio/29-7-masc.mp3"," ","","fauna","","","",""
"","1120","audio-keyboard-response","633","1053035","0.0-3.0-1.531","../audio/29-8-masc.mp3"," ","","marinha.","","","",""
"","null","html-keyboard-response","634","1054313","0.0-3.0-0.532-0.532","<span style= ""font-size:30px; font-family: monospace"">+</span>","null","fixation","","","","",""
"","920","audio-keyboard-response","635","1055614","0.0-3.0-1.532","../audio/30-1-fem.mp3"," ","","O","","","",""
"","1440","audio-keyboard-response","636","1057441","0.0-3.0-1.533","../audio/30-2-fem.mp3"," ","","funcionário","","","",""
"","1029","audio-keyboard-response","637","1058847","0.0-3.0-1.534","../audio/30-3-fem.mp3"," ","","entregou","","","",""
"","891","audio-keyboard-response","638","1060057","0.0-3.0-1.535","../audio/30-4-fem.mp3"," ","","o","","","",""
"","1309","audio-keyboard-response","639","1061734","0.0-3.0-1.536","../audio/30-5-fem.mp3"," ","","restante","","","",""
"","781","audio-keyboard-response","640","1062829","0.0-3.0-1.537","../audio/30-6-fem.mp3"," ","","do","","","",""
"","1101","audio-keyboard-response","641","1064264","0.0-3.0-1.538","../audio/30-7-fem.mp3"," ","","dinheiro.","","","",""
"","4999","html-keyboard-response","642","1069530","0.0-3.0-2.538-0.538","<span style=""font-size:25px; font-family: monospace"">O funcionário entregou o contrato?</span>","n","","","O funcionário entregou o contrato?","null","exp-sent","false"
"","null","html-keyboard-response","643","1071050","0.0-3.0-0.539-0.539","<span style= ""font-size:30px; font-family: monospace"">+</span>","null","fixation","","","","",""
"","920","audio-keyboard-response","644","1074368","0.0-3.0-1.539","../audio/72-1-fem.mp3"," ","","A","","","",""
"","1189","audio-keyboard-response","645","1076024","0.0-3.0-1.540","../audio/72-2-fem.mp3"," ","","vencedora","","","",""
"","981","audio-keyboard-response","646","1077353","0.0-3.0-1.541","../audio/72-3-fem.mp3"," ","","recebeu","","","",""
"","960","audio-keyboard-response","647","1078634","0.0-3.0-1.542","../audio/72-4-fem.mp3"," ","","um","","","",""
"","960","audio-keyboard-response","648","1079921","0.0-3.0-1.543","../audio/72-5-fem.mp3"," ","","prêmio","","","",""
"","701","audio-keyboard-response","649","1080938","0.0-3.0-1.544","../audio/72-6-fem.mp3"," ","","em","","","",""
"","880","audio-keyboard-response","650","1082150","0.0-3.0-1.545","../audio/72-7-fem.mp3"," ","","dinheiro.","","","",""
"","null","html-keyboard-response","651","1083412","0.0-3.0-0.546-0.546","<span style= ""font-size:30px; font-family: monospace"">+</span>","null","fixation","","","","",""
"","1051","audio-keyboard-response","652","1084872","0.0-3.0-1.546","../audio/71-1-fem.mp3"," ","","Minhas","","","",""
"","1139","audio-keyboard-response","653","1086376","0.0-3.0-1.547","../audio/71-2-fem.mp3"," ","","comidas","","","",""
"","1640","audio-keyboard-response","654","1088368","0.0-3.0-1.548","../audio/71-3-fem.mp3"," ","","favoritas","","","",""
"","861","audio-keyboard-response","655","1089538","0.0-3.0-1.549","../audio/71-4-fem.mp3"," ","","são","","","",""
"","941","audio-keyboard-response","656","1090826","0.0-3.0-1.550","../audio/71-5-fem.mp3"," ","","morango","","","",""
"","709","audio-keyboard-response","657","1091945","0.0-3.0-1.551","../audio/71-6-fem.mp3"," ","","e","","","",""
"","880","audio-keyboard-response","658","1093176","0.0-3.0-1.552","../audio/71-7-fem.mp3"," ","","uva.","","","",""
"","null","html-keyboard-response","659","1094432","0.0-3.0-0.553-0.553","<span style= ""font-size:30px; font-family: monospace"">+</span>","null","fixation","","","","",""
"","832","audio-keyboard-response","660","1095631","0.0-3.0-1.553","../audio/73-1-masc.mp3"," ","","O","","","",""
"","1131","audio-keyboard-response","661","1097110","0.0-3.0-1.554","../audio/73-2-masc.mp3"," ","","cliente","","","",""
"","728","audio-keyboard-response","662","1098160","0.0-3.0-1.555","../audio/73-3-masc.mp3"," ","","era","","","",""
"","749","audio-keyboard-response","663","1099220","0.0-3.0-1.556","../audio/73-4-masc.mp3"," ","","um","","","",""
"","880","audio-keyboard-response","664","1100425","0.0-3.0-1.557","../audio/73-5-masc.mp3"," ","","homem","","","",""
"","869","audio-keyboard-response","665","1101658","0.0-3.0-1.558","../audio/73-6-masc.mp3"," ","","muito","","","",""
"","1211","audio-keyboard-response","666","1103253","0.0-3.0-1.559","../audio/73-7-masc.mp3"," ","","educado.","","","",""
"","null","html-keyboard-response","667","1104507","0.0-3.0-0.560-0.560","<span style= ""font-size:30px; font-family: monospace"">+</span>","null","fixation","","","","",""
"","1029","audio-keyboard-response","668","1105918","0.0-3.0-1.560","../audio/74-1-masc.mp3"," ","","Este","","","",""
"","1099","audio-keyboard-response","669","1107363","0.0-3.0-1.561","../audio/74-2-masc.mp3"," ","","emprego","","","",""
"","701","audio-keyboard-response","670","1108379","0.0-3.0-1.562","../audio/74-3-masc.mp3"," ","","é","","","",""
"","920","audio-keyboard-response","671","1109610","0.0-3.0-1.563","../audio/74-4-masc.mp3"," ","","muito","","","",""
"","1248","audio-keyboard-response","672","1111200","0.0-3.0-1.564","../audio/74-5-masc.mp3"," ","","cansativo","","","",""
"","728","audio-keyboard-response","673","1112240","0.0-3.0-1.565","../audio/74-6-masc.mp3"," ","","a","","","",""
"","1029","audio-keyboard-response","674","1113599","0.0-3.0-1.566","../audio/74-7-masc.mp3"," ","","longo","","","",""
"","1061","audio-keyboard-response","675","1115034","0.0-3.0-1.567","../audio/74-8-masc.mp3"," ","","prazo.","","","",""
"","null","html-keyboard-response","676","1116302","0.0-3.0-0.568-0.568","<span style= ""font-size:30px; font-family: monospace"">+</span>","null","fixation","","","","",""
"","960","audio-keyboard-response","677","1117663","0.0-3.0-1.568","../audio/75-1-fem.mp3"," ","","Só","","","",""
"","1200","audio-keyboard-response","678","1119214","0.0-3.0-1.569","../audio/75-2-fem.mp3"," ","","existe","","","",""
"","971","audio-keyboard-response","679","1120501","0.0-3.0-1.570","../audio/75-3-fem.mp3"," ","","uma","","","",""
"","1120","audio-keyboard-response","680","1122002","0.0-3.0-1.571","../audio/75-4-fem.mp3"," ","","pessoa","","","",""
"","1629","audio-keyboard-response","681","1123972","0.0-3.0-1.572","../audio/75-5-fem.mp3"," ","","canhota","","","",""
"","1160","audio-keyboard-response","682","1125561","0.0-3.0-1.573","../audio/75-6-fem.mp3"," ","","nesta","","","",""
"","1131","audio-keyboard-response","683","1127049","0.0-3.0-1.574","../audio/75-7-fem.mp3"," ","","cidade.","","","",""
"","9398","html-keyboard-response","684","1136704","0.0-3.0-2.574-0.574","<span style=""font-size:25px; font-family: monospace"">Só existe uma pessoa canhota na cidade?</span>","s","","","Só existe uma pessoa canhota na cidade?","null","exp-sent","false"
"","null","html-keyboard-response","685","1138220","0.0-3.0-0.575-0.575","<span style= ""font-size:30px; font-family: monospace"">+</span>","null","fixation","","","","",""
"","872","audio-keyboard-response","686","1141467","0.0-3.0-1.575","../audio/68-1-masc.mp3"," ","","Meu","","","",""
"","880","audio-keyboard-response","687","1142808","0.0-3.0-1.576","../audio/68-2-masc.mp3"," ","","irmão","","","",""
"","861","audio-keyboard-response","688","1143989","0.0-3.0-1.577","../audio/68-3-masc.mp3"," ","","teve","","","",""
"","672","audio-keyboard-response","689","1145033","0.0-3.0-1.578","../audio/68-4-masc.mp3"," ","","um","","","",""
"","1051","audio-keyboard-response","690","1146431","0.0-3.0-1.579","../audio/68-5-masc.mp3"," ","","noivado","","","",""
"","1261","audio-keyboard-response","691","1148035","0.0-3.0-1.580","../audio/68-6-masc.mp3"," ","","longo","","","",""
"","749","audio-keyboard-response","692","1149125","0.0-3.0-1.581","../audio/68-7-masc.mp3"," ","","e","","","",""
"","1120","audio-keyboard-response","693","1150623","0.0-3.0-1.582","../audio/68-8-masc.mp3"," ","","maravilhoso.","","","",""
"","null","html-keyboard-response","694","1151901","0.0-3.0-0.583-0.583","<span style= ""font-size:30px; font-family: monospace"">+</span>","null","fixation","","","","",""
"","280","audio-keyboard-response","695","1152584","0.0-3.0-1.583","../audio/66-1-masc.mp3"," ","","Não","","","",""
"","1069","audio-keyboard-response","696","1153969","0.0-3.0-1.584","../audio/66-2-masc.mp3"," ","","gosto","","","",""
"","811","audio-keyboard-response","697","1155171","0.0-3.0-1.585","../audio/66-3-masc.mp3"," ","","de","","","",""
"","971","audio-keyboard-response","698","1156458","0.0-3.0-1.586","../audio/66-4-masc.mp3"," ","","gente","","","",""
"","1312","audio-keyboard-response","699","1158108","0.0-3.0-1.587","../audio/66-5-masc.mp3"," ","","egoísta","","","",""
"","989","audio-keyboard-response","700","1159415","0.0-3.0-1.588","../audio/66-6-masc.mp3"," ","","nem","","","",""
"","1429","audio-keyboard-response","701","1161175","0.0-3.0-1.589","../audio/66-7-masc.mp3"," ","","chata.","","","",""
"","null","html-keyboard-response","702","1162436","0.0-3.0-0.590-0.590","<span style= ""font-size:30px; font-family: monospace"">+</span>","null","fixation","","","","",""
"","229","audio-keyboard-response","703","1163037","0.0-3.0-1.590","../audio/69-1-fem.mp3"," ","","A","","","",""
"","1000","audio-keyboard-response","704","1164388","0.0-3.0-1.591","../audio/69-2-fem.mp3"," ","","loja","","","",""
"","979","audio-keyboard-response","705","1165817","0.0-3.0-1.592","../audio/69-3-fem.mp3"," ","","recebeu","","","",""
"","949","audio-keyboard-response","706","1167088","0.0-3.0-1.593","../audio/69-4-fem.mp3"," ","","uma","","","",""
"","1320","audio-keyboard-response","707","1168745","0.0-3.0-1.594","../audio/69-5-fem.mp3"," ","","poltrona","","","",""
"","749","audio-keyboard-response","708","1169810","0.0-3.0-1.595","../audio/69-6-fem.mp3"," ","","de","","","",""
"","869","audio-keyboard-response","709","1170999","0.0-3.0-1.596","../audio/69-7-fem.mp3"," ","","couro","","","",""
"","861","audio-keyboard-response","710","1172184","0.0-3.0-1.597","../audio/69-8-fem.mp3"," ","","preto.","","","",""
"","null","html-keyboard-response","711","1173439","0.0-3.0-0.598-0.598","<span style= ""font-size:30px; font-family: monospace"">+</span>","null","fixation","","","","",""
"","1069","audio-keyboard-response","712","1174890","0.0-3.0-1.598","../audio/67-1-masc.mp3"," ","","Minha","","","",""
"","851","audio-keyboard-response","713","1176060","0.0-3.0-1.599","../audio/67-2-masc.mp3"," ","","tia","","","",""
"","1008","audio-keyboard-response","714","1177400","0.0-3.0-1.600","../audio/67-3-masc.mp3"," ","","comprou","","","",""
"","752","audio-keyboard-response","715","1178476","0.0-3.0-1.601","../audio/67-4-masc.mp3"," ","","um","","","",""
"","1040","audio-keyboard-response","716","1179830","0.0-3.0-1.602","../audio/67-5-masc.mp3"," ","","cordão","","","",""
"","811","audio-keyboard-response","717","1180950","0.0-3.0-1.603","../audio/67-6-masc.mp3"," ","","para","","","",""
"","771","audio-keyboard-response","718","1182037","0.0-3.0-1.604","../audio/67-7-masc.mp3"," ","","o","","","",""
"","1120","audio-keyboard-response","719","1183506","0.0-3.0-1.605","../audio/67-8-masc.mp3"," ","","varal.","","","",""
"","null","html-keyboard-response","720","1184771","0.0-3.0-0.606-0.606","<span style= ""font-size:30px; font-family: monospace"">+</span>","null","fixation","","","","",""
"","760","audio-keyboard-response","721","1185941","0.0-3.0-1.606","../audio/70-1-masc.mp3"," ","","O","","","",""
"","869","audio-keyboard-response","722","1187138","0.0-3.0-1.607","../audio/70-2-masc.mp3"," ","","meu","","","",""
"","811","audio-keyboard-response","723","1188335","0.0-3.0-1.608","../audio/70-3-masc.mp3"," ","","filho","","","",""
"","731","audio-keyboard-response","724","1189388","0.0-3.0-1.609","../audio/70-4-masc.mp3"," ","","tem","","","",""
"","909","audio-keyboard-response","725","1190612","0.0-3.0-1.610","../audio/70-5-masc.mp3"," ","","medo","","","",""
"","712","audio-keyboard-response","726","1191632","0.0-3.0-1.611","../audio/70-6-masc.mp3"," ","","de","","","",""
"","1112","audio-keyboard-response","727","1193071","0.0-3.0-1.612","../audio/70-7-masc.mp3"," ","","enguia","","","",""
"","749","audio-keyboard-response","728","1194127","0.0-3.0-1.613","../audio/70-8-masc.mp3"," ","","e","","","",""
"","1421","audio-keyboard-response","729","1195952","0.0-3.0-1.614","../audio/70-9-masc.mp3"," ","","beija-flor.","","","",""
"","4004","html-keyboard-response","730","1200215","0.0-3.0-2.614-0.614","<span style=""font-size:25px; font-family: monospace"">O filho tem medo de tigre?</span>","n","","","O filho tem medo de tigre?","null","exp-sent","false"
"[{""page_index"":0,""viewing_time"":8628}]","8628","instructions","731","1209359","0.0-4.0","","","","","","","",""
