[
	{
		"view_history": [
			{
				"page_index": 0,
				"viewing_time": 5313
			}
		],
		"rt": 5313,
		"trial_type": "instructions",
		"trial_index": 0,
		"time_elapsed": 5315,
		"internal_node_id": "0.0-0.0"
	},
	{
		"rt": 70014,
		"response": {
			"reading_habits_printed_magazines": "Alguns dias da semana",
			"reading_habits_printed_newspapers": "Todos os dias",
			"reading_habits_books": "Alguns dias da semana",
			"reading_habits_printed_socialmedias": "Todos os dias"
		},
		"question_order": [
			0,
			1,
			2,
			3
		],
		"trial_type": "survey-multi-choice",
		"trial_index": 1,
		"time_elapsed": 75440,
		"internal_node_id": "0.0-1.0"
	},
	{
		"rt": 60899,
		"response": {
			"reading_habits_virtual_magazines": "Alguns dias da semana",
			"reading_habits_virtual_newspapers": "Todos os dias",
			"reading_habits_books": "Alguns dias da semana",
			"reading_habits_virtual_socialmedias": "Todos os dias"
		},
		"question_order": [
			0,
			1,
			2,
			3
		],
		"trial_type": "survey-multi-choice",
		"trial_index": 2,
		"time_elapsed": 136443,
		"internal_node_id": "0.0-2.0"
	},
	{
		"rt": 37260,
		"response": {
			"reading_habits_other_which": "",
			"reading_habits_other_frequency": ""
		},
		"trial_type": "survey-text",
		"trial_index": 3,
		"time_elapsed": 173813,
		"internal_node_id": "0.0-3.0"
	}
]