"view_history","rt","trial_type","trial_index","time_elapsed","internal_node_id","stimulus","response","trial_part","trial","word","question","answer","accuracy"
"[{""page_index"":0,""viewing_time"":52534}]","52535","instructions","0","52538","0.0-0.0","","","","","","","",""
"","null","html-keyboard-response","1","53643","0.0-1.0-0.0-0.0","<span style= ""font-size:30px; font-family: monospace"">+</span>","null","fixation","","","","",""
"","17927","html-keyboard-response","2","71824","0.0-1.0-1.0","<span style=""font-size:30px; font-family: monospace"">O</span>"," ","","prac-sent","O","","",""
"","1239","html-keyboard-response","3","73318","0.0-1.0-1.1","<span style=""font-size:30px; font-family: monospace"">dia</span>"," ","","prac-sent","dia","","",""
"","1189","html-keyboard-response","4","74760","0.0-1.0-1.2","<span style=""font-size:30px; font-family: monospace"">estará</span>"," ","","prac-sent","estará","","",""
"","990","html-keyboard-response","5","76003","0.0-1.0-1.3","<span style=""font-size:30px; font-family: monospace"">cheio</span>"," ","","prac-sent","cheio","","",""
"","927","html-keyboard-response","6","77183","0.0-1.0-1.4","<span style=""font-size:30px; font-family: monospace"">de</span>"," ","","prac-sent","de","","",""
"","962","html-keyboard-response","7","78397","0.0-1.0-1.5","<span style=""font-size:30px; font-family: monospace"">nuvens</span>"," ","","prac-sent","nuvens","","",""
"","2100","html-keyboard-response","8","80750","0.0-1.0-1.6","<span style=""font-size:30px; font-family: monospace"">hoje.</span>"," ","","prac-sent","hoje.","","",""
"","null","html-keyboard-response","9","82004","0.0-1.0-0.7-0.7","<span style= ""font-size:30px; font-family: monospace"">+</span>","null","fixation","","","","",""
"","3344","html-keyboard-response","10","85601","0.0-1.0-1.7","<span style=""font-size:30px; font-family: monospace"">A</span>"," ","","prac-sent","A","","",""
"","1324","html-keyboard-response","11","87178","0.0-1.0-1.8","<span style=""font-size:30px; font-family: monospace"">caneca</span>"," ","","prac-sent","caneca","","",""
"","948","html-keyboard-response","12","88379","0.0-1.0-1.9","<span style=""font-size:30px; font-family: monospace"">colorida</span>"," ","","prac-sent","colorida","","",""
"","1435","html-keyboard-response","13","90066","0.0-1.0-1.10","<span style=""font-size:30px; font-family: monospace"">caiu</span>"," ","","prac-sent","caiu","","",""
"","744","html-keyboard-response","14","91062","0.0-1.0-1.11","<span style=""font-size:30px; font-family: monospace"">da</span>"," ","","prac-sent","da","","",""
"","655","html-keyboard-response","15","91969","0.0-1.0-1.12","<span style=""font-size:30px; font-family: monospace"">mesa</span>"," ","","prac-sent","mesa","","",""
"","665","html-keyboard-response","16","92886","0.0-1.0-1.13","<span style=""font-size:30px; font-family: monospace"">de</span>"," ","","prac-sent","de","","",""
"","1412","html-keyboard-response","17","94550","0.0-1.0-1.14","<span style=""font-size:30px; font-family: monospace"">jantar.</span>"," ","","prac-comp","jantar.","","",""
"","8712","html-keyboard-response","18","103515","0.0-1.0-2.14-0.14","<span style=""font-size:30px; font-family: monospace"">A caneca permaneceu na mesa?</span>","n","","prac-comp","","A caneca permaneceu na mesa?","não","false"
"[{""page_index"":0,""viewing_time"":28438}]","28439","instructions","19","132455","0.0-2.0","","","","","","","",""
"","null","html-keyboard-response","20","133558","0.0-3.0-0.0-0.0","<span style= ""font-size:30px; font-family: monospace"">+</span>","null","fixation","","","","",""
"","2708","html-keyboard-response","21","136518","0.0-3.0-1.0","<span style=""font-size:30px; font-family: monospace"">A</span>"," ","","exp-sent","A","","",""
"","1294","html-keyboard-response","22","138065","0.0-3.0-1.1","<span style=""font-size:30px; font-family: monospace"">motorista</span>"," ","","exp-sent","motorista","","",""
"","612","html-keyboard-response","23","138930","0.0-3.0-1.2","<span style=""font-size:30px; font-family: monospace"">fez</span>"," ","","exp-sent","fez","","",""
"","641","html-keyboard-response","24","139823","0.0-3.0-1.3","<span style=""font-size:30px; font-family: monospace"">o</span>"," ","","exp-sent","o","","",""
"","721","html-keyboard-response","25","140796","0.0-3.0-1.4","<span style=""font-size:30px; font-family: monospace"">retorno</span>"," ","","exp-sent","retorno","","",""
"","552","html-keyboard-response","26","141601","0.0-3.0-1.5","<span style=""font-size:30px; font-family: monospace"">com</span>"," ","","exp-sent","com","","",""
"","1228","html-keyboard-response","27","143080","0.0-3.0-1.6","<span style=""font-size:30px; font-family: monospace"">cuidado.</span>"," ","","exp-sent","cuidado.","","",""
"","null","html-keyboard-response","28","144332","0.0-3.0-0.7-0.7","<span style= ""font-size:30px; font-family: monospace"">+</span>","null","fixation","","","","",""
"","3357","html-keyboard-response","29","147942","0.0-3.0-1.7","<span style=""font-size:30px; font-family: monospace"">Contos</span>"," ","","exp-sent","Contos","","",""
"","652","html-keyboard-response","30","148847","0.0-3.0-1.8","<span style=""font-size:30px; font-family: monospace"">de</span>"," ","","exp-sent","de","","",""
"","842","html-keyboard-response","31","149940","0.0-3.0-1.9","<span style=""font-size:30px; font-family: monospace"">ação</span>"," ","","exp-sent","ação","","",""
"","651","html-keyboard-response","32","150844","0.0-3.0-1.10","<span style=""font-size:30px; font-family: monospace"">têm</span>"," ","","exp-sent","têm","","",""
"","1559","html-keyboard-response","33","152657","0.0-3.0-1.11","<span style=""font-size:30px; font-family: monospace"">chantagem</span>"," ","","exp-sent","chantagem","","",""
"","637","html-keyboard-response","34","153548","0.0-3.0-1.12","<span style=""font-size:30px; font-family: monospace"">e</span>"," ","","exp-sent","e","","",""
"","602","html-keyboard-response","35","154402","0.0-3.0-1.13","<span style=""font-size:30px; font-family: monospace"">muita</span>"," ","","exp-sent","muita","","",""
"","637","html-keyboard-response","36","155292","0.0-3.0-1.14","<span style=""font-size:30px; font-family: monospace"">luta.</span>"," ","","exp-sent","luta.","","",""
"","null","html-keyboard-response","37","156544","0.0-3.0-0.15-0.15","<span style= ""font-size:30px; font-family: monospace"">+</span>","null","fixation","","","","",""
"","499","html-keyboard-response","38","157295","0.0-3.0-1.15","<span style=""font-size:30px; font-family: monospace"">A</span>"," ","","exp-sent","A","","",""
"","1375","html-keyboard-response","39","158922","0.0-3.0-1.16","<span style=""font-size:30px; font-family: monospace"">bisavó</span>"," ","","exp-sent","bisavó","","",""
"","894","html-keyboard-response","40","160068","0.0-3.0-1.17","<span style=""font-size:30px; font-family: monospace"">recebeu</span>"," ","","exp-sent","recebeu","","",""
"","932","html-keyboard-response","41","161252","0.0-3.0-1.18","<span style=""font-size:30px; font-family: monospace"">um</span>"," ","","exp-sent","um","","",""
"","1224","html-keyboard-response","42","162727","0.0-3.0-1.19","<span style=""font-size:30px; font-family: monospace"">benefício</span>"," ","","exp-sent","benefício","","",""
"","1007","html-keyboard-response","43","163986","0.0-3.0-1.20","<span style=""font-size:30px; font-family: monospace"">temporário</span>"," ","","exp-sent","temporário","","",""
"","792","html-keyboard-response","44","165031","0.0-3.0-1.21","<span style=""font-size:30px; font-family: monospace"">do</span>"," ","","exp-sent","do","","",""
"","759","html-keyboard-response","45","166042","0.0-3.0-1.22","<span style=""font-size:30px; font-family: monospace"">governo.</span>"," ","","exp-sent","governo.","","",""
"","null","html-keyboard-response","46","167294","0.0-3.0-0.23-0.23","<span style= ""font-size:30px; font-family: monospace"">+</span>","null","fixation","","","","",""
"","658","html-keyboard-response","47","168205","0.0-3.0-1.23","<span style=""font-size:30px; font-family: monospace"">As</span>"," ","","exp-sent","As","","",""
"","964","html-keyboard-response","48","169421","0.0-3.0-1.24","<span style=""font-size:30px; font-family: monospace"">crianças</span>"," ","","exp-sent","crianças","","",""
"","848","html-keyboard-response","49","170522","0.0-3.0-1.25","<span style=""font-size:30px; font-family: monospace"">brincaram</span>"," ","","exp-sent","brincaram","","",""
"","544","html-keyboard-response","50","171318","0.0-3.0-1.26","<span style=""font-size:30px; font-family: monospace"">no</span>"," ","","exp-sent","no","","",""
"","729","html-keyboard-response","51","172299","0.0-3.0-1.27","<span style=""font-size:30px; font-family: monospace"">balanço</span>"," ","","exp-sent","balanço","","",""
"","832","html-keyboard-response","52","173384","0.0-3.0-1.28","<span style=""font-size:30px; font-family: monospace"">a</span>"," ","","exp-sent","a","","",""
"","734","html-keyboard-response","53","174370","0.0-3.0-1.29","<span style=""font-size:30px; font-family: monospace"">tarde</span>"," ","","exp-sent","tarde","","",""
"","780","html-keyboard-response","54","175402","0.0-3.0-1.30","<span style=""font-size:30px; font-family: monospace"">toda.</span>"," ","","exp-sent","toda.","","",""
"","null","html-keyboard-response","55","176654","0.0-3.0-0.31-0.31","<span style= ""font-size:30px; font-family: monospace"">+</span>","null","fixation","","","","",""
"","652","html-keyboard-response","56","177558","0.0-3.0-1.31","<span style=""font-size:30px; font-family: monospace"">Ela</span>"," ","","exp-sent","Ela","","",""
"","735","html-keyboard-response","57","178546","0.0-3.0-1.32","<span style=""font-size:30px; font-family: monospace"">gosta</span>"," ","","exp-sent","gosta","","",""
"","953","html-keyboard-response","58","179751","0.0-3.0-1.33","<span style=""font-size:30px; font-family: monospace"">de</span>"," ","","exp-sent","de","","",""
"","891","html-keyboard-response","59","180894","0.0-3.0-1.34","<span style=""font-size:30px; font-family: monospace"">comida</span>"," ","","exp-sent","comida","","",""
"","675","html-keyboard-response","60","181822","0.0-3.0-1.35","<span style=""font-size:30px; font-family: monospace"">natural</span>"," ","","exp-sent","natural","","",""
"","636","html-keyboard-response","61","182711","0.0-3.0-1.36","<span style=""font-size:30px; font-family: monospace"">no</span>"," ","","exp-sent","no","","",""
"","644","html-keyboard-response","62","183607","0.0-3.0-1.37","<span style=""font-size:30px; font-family: monospace"">almoço.</span>"," ","","comp","almoço.","","",""
"","4711","html-keyboard-response","63","188570","0.0-3.0-2.37-0.37","<span style=""font-size:30px; font-family: monospace"">Ela gosta de comida natural no almoço?</span>","s","","comp","","Ela gosta de comida natural no almoço?","sim","false"
"","null","html-keyboard-response","64","190073","0.0-3.0-0.38-0.38","<span style= ""font-size:30px; font-family: monospace"">+</span>","null","fixation","","","","",""
"","1683","html-keyboard-response","65","192009","0.0-3.0-1.38","<span style=""font-size:30px; font-family: monospace"">Ele</span>"," ","","exp-sent","Ele","","",""
"","660","html-keyboard-response","66","192921","0.0-3.0-1.39","<span style=""font-size:30px; font-family: monospace"">é</span>"," ","","exp-sent","é","","",""
"","688","html-keyboard-response","67","193862","0.0-3.0-1.40","<span style=""font-size:30px; font-family: monospace"">um</span>"," ","","exp-sent","um","","",""
"","570","html-keyboard-response","68","194685","0.0-3.0-1.41","<span style=""font-size:30px; font-family: monospace"">pai</span>"," ","","exp-sent","pai","","",""
"","944","html-keyboard-response","69","195880","0.0-3.0-1.42","<span style=""font-size:30px; font-family: monospace"">ausente</span>"," ","","exp-sent","ausente","","",""
"","492","html-keyboard-response","70","196624","0.0-3.0-1.43","<span style=""font-size:30px; font-family: monospace"">e</span>"," ","","exp-sent","e","","",""
"","592","html-keyboard-response","71","197468","0.0-3.0-1.44","<span style=""font-size:30px; font-family: monospace"">muito</span>"," ","","exp-sent","muito","","",""
"","1142","html-keyboard-response","72","198862","0.0-3.0-1.45","<span style=""font-size:30px; font-family: monospace"">fofoqueiro.</span>"," ","","exp-sent","fofoqueiro.","","",""
"","null","html-keyboard-response","73","200114","0.0-3.0-0.46-0.46","<span style= ""font-size:30px; font-family: monospace"">+</span>","null","fixation","","","","",""
"","517","html-keyboard-response","74","200884","0.0-3.0-1.46","<span style=""font-size:30px; font-family: monospace"">O</span>"," ","","exp-sent","O","","",""
"","635","html-keyboard-response","75","201771","0.0-3.0-1.47","<span style=""font-size:30px; font-family: monospace"">filho</span>"," ","","exp-sent","filho","","",""
"","576","html-keyboard-response","76","202601","0.0-3.0-1.48","<span style=""font-size:30px; font-family: monospace"">lavou</span>"," ","","exp-sent","lavou","","",""
"","482","html-keyboard-response","77","203335","0.0-3.0-1.49","<span style=""font-size:30px; font-family: monospace"">a</span>"," ","","exp-sent","a","","",""
"","492","html-keyboard-response","78","204078","0.0-3.0-1.50","<span style=""font-size:30px; font-family: monospace"">roupa</span>"," ","","exp-sent","roupa","","",""
"","522","html-keyboard-response","79","204853","0.0-3.0-1.51","<span style=""font-size:30px; font-family: monospace"">sem</span>"," ","","exp-sent","sem","","",""
"","718","html-keyboard-response","80","205823","0.0-3.0-1.52","<span style=""font-size:30px; font-family: monospace"">nenhuma</span>"," ","","exp-sent","nenhuma","","",""
"","561","html-keyboard-response","81","206635","0.0-3.0-1.53","<span style=""font-size:30px; font-family: monospace"">ajuda.</span>"," ","","exp-sent","ajuda.","","",""
"","null","html-keyboard-response","82","207887","0.0-3.0-0.54-0.54","<span style= ""font-size:30px; font-family: monospace"">+</span>","null","fixation","","","","",""
"","549","html-keyboard-response","83","208689","0.0-3.0-1.54","<span style=""font-size:30px; font-family: monospace"">O</span>"," ","","exp-sent","O","","",""
"","552","html-keyboard-response","84","209493","0.0-3.0-1.55","<span style=""font-size:30px; font-family: monospace"">menino</span>"," ","","exp-sent","menino","","",""
"","440","html-keyboard-response","85","210185","0.0-3.0-1.56","<span style=""font-size:30px; font-family: monospace"">quebrou</span>"," ","","exp-sent","quebrou","","",""
"","460","html-keyboard-response","86","210898","0.0-3.0-1.57","<span style=""font-size:30px; font-family: monospace"">a</span>"," ","","exp-sent","a","","",""
"","452","html-keyboard-response","87","211601","0.0-3.0-1.58","<span style=""font-size:30px; font-family: monospace"">perna</span>"," ","","exp-sent","perna","","",""
"","336","html-keyboard-response","88","212189","0.0-3.0-1.59","<span style=""font-size:30px; font-family: monospace"">nos</span>"," ","","exp-sent","nos","","",""
"","605","html-keyboard-response","89","213045","0.0-3.0-1.60","<span style=""font-size:30px; font-family: monospace"">esportes.</span>"," ","","exp-sent","esportes.","","",""
"","null","html-keyboard-response","90","214297","0.0-3.0-0.61-0.61","<span style= ""font-size:30px; font-family: monospace"">+</span>","null","fixation","","","","",""
"","482","html-keyboard-response","91","215032","0.0-3.0-1.61","<span style=""font-size:30px; font-family: monospace"">Ela</span>"," ","","exp-sent","Ela","","",""
"","517","html-keyboard-response","92","215802","0.0-3.0-1.62","<span style=""font-size:30px; font-family: monospace"">brincou</span>"," ","","exp-sent","brincou","","",""
"","449","html-keyboard-response","93","216503","0.0-3.0-1.63","<span style=""font-size:30px; font-family: monospace"">com</span>"," ","","exp-sent","com","","",""
"","480","html-keyboard-response","94","217235","0.0-3.0-1.64","<span style=""font-size:30px; font-family: monospace"">uma</span>"," ","","exp-sent","uma","","",""
"","614","html-keyboard-response","95","218101","0.0-3.0-1.65","<span style=""font-size:30px; font-family: monospace"">menina</span>"," ","","exp-sent","menina","","",""
"","521","html-keyboard-response","96","218874","0.0-3.0-1.66","<span style=""font-size:30px; font-family: monospace"">da</span>"," ","","exp-sent","da","","",""
"","576","html-keyboard-response","97","219701","0.0-3.0-1.67","<span style=""font-size:30px; font-family: monospace"">turma.</span>"," ","","exp-sent","turma.","","",""
"","null","html-keyboard-response","98","220953","0.0-3.0-0.68-0.68","<span style= ""font-size:30px; font-family: monospace"">+</span>","null","fixation","","","","",""
"","702","html-keyboard-response","99","221906","0.0-3.0-1.68","<span style=""font-size:30px; font-family: monospace"">Ele</span>"," ","","exp-sent","Ele","","",""
"","655","html-keyboard-response","100","222813","0.0-3.0-1.69","<span style=""font-size:30px; font-family: monospace"">esteve</span>"," ","","exp-sent","esteve","","",""
"","706","html-keyboard-response","101","223771","0.0-3.0-1.70","<span style=""font-size:30px; font-family: monospace"">no</span>"," ","","exp-sent","no","","",""
"","710","html-keyboard-response","102","224733","0.0-3.0-1.71","<span style=""font-size:30px; font-family: monospace"">escritório</span>"," ","","exp-sent","escritório","","",""
"","546","html-keyboard-response","103","225532","0.0-3.0-1.72","<span style=""font-size:30px; font-family: monospace"">o</span>"," ","","exp-sent","o","","",""
"","433","html-keyboard-response","104","226217","0.0-3.0-1.73","<span style=""font-size:30px; font-family: monospace"">dia</span>"," ","","exp-sent","dia","","",""
"","394","html-keyboard-response","105","226864","0.0-3.0-1.74","<span style=""font-size:30px; font-family: monospace"">inteiro.</span>"," ","","comp","inteiro.","","",""
"","7193","html-keyboard-response","106","234309","0.0-3.0-2.74-0.74","<span style=""font-size:30px; font-family: monospace"">Ele esteve no parque o dia inteiro?</span>","n","","comp","","Ele esteve no parque o dia inteiro?","não","false"
"","null","html-keyboard-response","107","235812","0.0-3.0-0.75-0.75","<span style= ""font-size:30px; font-family: monospace"">+</span>","null","fixation","","","","",""
"","95","html-keyboard-response","108","236159","0.0-3.0-1.75","<span style=""font-size:30px; font-family: monospace"">A</span>"," ","","exp-sent","A","","",""
"","511","html-keyboard-response","109","236923","0.0-3.0-1.76","<span style=""font-size:30px; font-family: monospace"">força</span>"," ","","exp-sent","força","","",""
"","387","html-keyboard-response","110","237561","0.0-3.0-1.77","<span style=""font-size:30px; font-family: monospace"">d'água</span>"," ","","exp-sent","d'água","","",""
"","519","html-keyboard-response","111","238332","0.0-3.0-1.78","<span style=""font-size:30px; font-family: monospace"">estava</span>"," ","","exp-sent","estava","","",""
"","462","html-keyboard-response","112","239046","0.0-3.0-1.79","<span style=""font-size:30px; font-family: monospace"">normal</span>"," ","","exp-sent","normal","","",""
"","412","html-keyboard-response","113","239710","0.0-3.0-1.80","<span style=""font-size:30px; font-family: monospace"">naquele</span>"," ","","exp-sent","naquele","","",""
"","388","html-keyboard-response","114","240351","0.0-3.0-1.81","<span style=""font-size:30px; font-family: monospace"">dia.</span>"," ","","exp-sent","dia.","","",""
"","null","html-keyboard-response","115","241603","0.0-3.0-0.82-0.82","<span style= ""font-size:30px; font-family: monospace"">+</span>","null","fixation","","","","",""
"","225","html-keyboard-response","116","242089","0.0-3.0-1.82","<span style=""font-size:30px; font-family: monospace"">A</span>"," ","","exp-sent","A","","",""
"","444","html-keyboard-response","117","242785","0.0-3.0-1.83","<span style=""font-size:30px; font-family: monospace"">médica</span>"," ","","exp-sent","médica","","",""
"","387","html-keyboard-response","118","243424","0.0-3.0-1.84","<span style=""font-size:30px; font-family: monospace"">ofereceu</span>"," ","","exp-sent","ofereceu","","",""
"","434","html-keyboard-response","119","244109","0.0-3.0-1.85","<span style=""font-size:30px; font-family: monospace"">a</span>"," ","","exp-sent","a","","",""
"","789","html-keyboard-response","120","245150","0.0-3.0-1.86","<span style=""font-size:30px; font-family: monospace"">pomada</span>"," ","","exp-sent","pomada","","",""
"","370","html-keyboard-response","121","245772","0.0-3.0-1.87","<span style=""font-size:30px; font-family: monospace"">para</span>"," ","","exp-sent","para","","",""
"","327","html-keyboard-response","122","246353","0.0-3.0-1.88","<span style=""font-size:30px; font-family: monospace"">o</span>"," ","","exp-sent","o","","",""
"","277","html-keyboard-response","123","246882","0.0-3.0-1.89","<span style=""font-size:30px; font-family: monospace"">avô.</span>"," ","","exp-sent","avô.","","",""
"","null","html-keyboard-response","124","248134","0.0-3.0-0.90-0.90","<span style= ""font-size:30px; font-family: monospace"">+</span>","null","fixation","","","","",""
"","538","html-keyboard-response","125","248925","0.0-3.0-1.90","<span style=""font-size:30px; font-family: monospace"">Ele</span>"," ","","exp-sent","Ele","","",""
"","357","html-keyboard-response","126","249534","0.0-3.0-1.91","<span style=""font-size:30px; font-family: monospace"">conversou</span>"," ","","exp-sent","conversou","","",""
"","405","html-keyboard-response","127","250191","0.0-3.0-1.92","<span style=""font-size:30px; font-family: monospace"">com</span>"," ","","exp-sent","com","","",""
"","405","html-keyboard-response","128","250847","0.0-3.0-1.93","<span style=""font-size:30px; font-family: monospace"">o</span>"," ","","exp-sent","o","","",""
"","578","html-keyboard-response","129","251678","0.0-3.0-1.94","<span style=""font-size:30px; font-family: monospace"">patrão</span>"," ","","exp-sent","patrão","","",""
"","464","html-keyboard-response","130","252394","0.0-3.0-1.95","<span style=""font-size:30px; font-family: monospace"">durante</span>"," ","","exp-sent","durante","","",""
"","437","html-keyboard-response","131","253083","0.0-3.0-1.96","<span style=""font-size:30px; font-family: monospace"">a</span>"," ","","exp-sent","a","","",""
"","388","html-keyboard-response","132","253723","0.0-3.0-1.97","<span style=""font-size:30px; font-family: monospace"">tarde.</span>"," ","","exp-sent","tarde.","","",""
"","null","html-keyboard-response","133","254977","0.0-3.0-0.98-0.98","<span style= ""font-size:30px; font-family: monospace"">+</span>","null","fixation","","","","",""
"","654","html-keyboard-response","134","255883","0.0-3.0-1.98","<span style=""font-size:30px; font-family: monospace"">Algumas</span>"," ","","exp-sent","Algumas","","",""
"","406","html-keyboard-response","135","256542","0.0-3.0-1.99","<span style=""font-size:30px; font-family: monospace"">pessoas</span>"," ","","exp-sent","pessoas","","",""
"","427","html-keyboard-response","136","257222","0.0-3.0-1.100","<span style=""font-size:30px; font-family: monospace"">acreditam</span>"," ","","exp-sent","acreditam","","",""
"","502","html-keyboard-response","137","257976","0.0-3.0-1.101","<span style=""font-size:30px; font-family: monospace"">em</span>"," ","","exp-sent","em","","",""
"","444","html-keyboard-response","138","258672","0.0-3.0-1.102","<span style=""font-size:30px; font-family: monospace"">espíritos</span>"," ","","exp-sent","espíritos","","",""
"","391","html-keyboard-response","139","259315","0.0-3.0-1.103","<span style=""font-size:30px; font-family: monospace"">e</span>"," ","","exp-sent","e","","",""
"","427","html-keyboard-response","140","259994","0.0-3.0-1.104","<span style=""font-size:30px; font-family: monospace"">em</span>"," ","","exp-sent","em","","",""
"","481","html-keyboard-response","141","260727","0.0-3.0-1.105","<span style=""font-size:30px; font-family: monospace"">outras</span>"," ","","exp-sent","outras","","",""
"","460","html-keyboard-response","142","261440","0.0-3.0-1.106","<span style=""font-size:30px; font-family: monospace"">vidas.</span>"," ","","exp-sent","vidas.","","",""
"","null","html-keyboard-response","143","262694","0.0-3.0-0.107-0.107","<span style= ""font-size:30px; font-family: monospace"">+</span>","null","fixation","","","","",""
"","647","html-keyboard-response","144","263595","0.0-3.0-1.107","<span style=""font-size:30px; font-family: monospace"">Ela</span>"," ","","exp-sent","Ela","","",""
"","399","html-keyboard-response","145","264246","0.0-3.0-1.108","<span style=""font-size:30px; font-family: monospace"">gosta</span>"," ","","exp-sent","gosta","","",""
"","364","html-keyboard-response","146","264862","0.0-3.0-1.109","<span style=""font-size:30px; font-family: monospace"">de</span>"," ","","exp-sent","de","","",""
"","356","html-keyboard-response","147","265470","0.0-3.0-1.110","<span style=""font-size:30px; font-family: monospace"">estudar</span>"," ","","exp-sent","estudar","","",""
"","463","html-keyboard-response","148","266185","0.0-3.0-1.111","<span style=""font-size:30px; font-family: monospace"">matemática</span>"," ","","exp-sent","matemática","","",""
"","464","html-keyboard-response","149","266902","0.0-3.0-1.112","<span style=""font-size:30px; font-family: monospace"">com</span>"," ","","exp-sent","com","","",""
"","473","html-keyboard-response","150","267626","0.0-3.0-1.113","<span style=""font-size:30px; font-family: monospace"">colegas.</span>"," ","","comp","colegas.","","",""
"","5956","html-keyboard-response","151","273835","0.0-3.0-2.113-0.113","<span style=""font-size:30px; font-family: monospace"">Ela gosta de estudar física?</span>","n","","comp","","Ela gosta de estudar física?","não","false"
"","null","html-keyboard-response","152","275337","0.0-3.0-0.114-0.114","<span style= ""font-size:30px; font-family: monospace"">+</span>","null","fixation","","","","",""
"","409","html-keyboard-response","153","275998","0.0-3.0-1.114","<span style=""font-size:30px; font-family: monospace"">Ganhamos</span>"," ","","exp-sent","Ganhamos","","",""
"","514","html-keyboard-response","154","276764","0.0-3.0-1.115","<span style=""font-size:30px; font-family: monospace"">passagem</span>"," ","","exp-sent","passagem","","",""
"","371","html-keyboard-response","155","277388","0.0-3.0-1.116","<span style=""font-size:30px; font-family: monospace"">para</span>"," ","","exp-sent","para","","",""
"","432","html-keyboard-response","156","278073","0.0-3.0-1.117","<span style=""font-size:30px; font-family: monospace"">uma</span>"," ","","exp-sent","uma","","",""
"","386","html-keyboard-response","157","278711","0.0-3.0-1.118","<span style=""font-size:30px; font-family: monospace"">viagem</span>"," ","","exp-sent","viagem","","",""
"","454","html-keyboard-response","158","279417","0.0-3.0-1.119","<span style=""font-size:30px; font-family: monospace"">de</span>"," ","","exp-sent","de","","",""
"","975","html-keyboard-response","159","280644","0.0-3.0-1.120","<span style=""font-size:30px; font-family: monospace"">férias.</span>"," ","","exp-sent","férias.","","",""
"","null","html-keyboard-response","160","281896","0.0-3.0-0.121-0.121","<span style= ""font-size:30px; font-family: monospace"">+</span>","null","fixation","","","","",""
"","663","html-keyboard-response","161","282812","0.0-3.0-1.121","<span style=""font-size:30px; font-family: monospace"">Caiu</span>"," ","","exp-sent","Caiu","","",""
"","588","html-keyboard-response","162","283652","0.0-3.0-1.122","<span style=""font-size:30px; font-family: monospace"">algo</span>"," ","","exp-sent","algo","","",""
"","500","html-keyboard-response","163","284405","0.0-3.0-1.123","<span style=""font-size:30px; font-family: monospace"">no</span>"," ","","exp-sent","no","","",""
"","464","html-keyboard-response","164","285122","0.0-3.0-1.124","<span style=""font-size:30px; font-family: monospace"">meu</span>"," ","","exp-sent","meu","","",""
"","449","html-keyboard-response","165","285823","0.0-3.0-1.125","<span style=""font-size:30px; font-family: monospace"">olho</span>"," ","","exp-sent","olho","","",""
"","413","html-keyboard-response","166","286487","0.0-3.0-1.126","<span style=""font-size:30px; font-family: monospace"">ontem</span>"," ","","exp-sent","ontem","","",""
"","493","html-keyboard-response","167","287231","0.0-3.0-1.127","<span style=""font-size:30px; font-family: monospace"">de</span>"," ","","exp-sent","de","","",""
"","452","html-keyboard-response","168","287935","0.0-3.0-1.128","<span style=""font-size:30px; font-family: monospace"">tarde.</span>"," ","","exp-sent","tarde.","","",""
"","null","html-keyboard-response","169","289188","0.0-3.0-0.129-0.129","<span style= ""font-size:30px; font-family: monospace"">+</span>","null","fixation","","","","",""
"","498","html-keyboard-response","170","289938","0.0-3.0-1.129","<span style=""font-size:30px; font-family: monospace"">Não</span>"," ","","exp-sent","Não","","",""
"","388","html-keyboard-response","171","290579","0.0-3.0-1.130","<span style=""font-size:30px; font-family: monospace"">havia</span>"," ","","exp-sent","havia","","",""
"","814","html-keyboard-response","172","291645","0.0-3.0-1.131","<span style=""font-size:30px; font-family: monospace"">mais</span>"," ","","exp-sent","mais","","",""
"","401","html-keyboard-response","173","292298","0.0-3.0-1.132","<span style=""font-size:30px; font-family: monospace"">nenhum</span>"," ","","exp-sent","nenhum","","",""
"","457","html-keyboard-response","174","293008","0.0-3.0-1.133","<span style=""font-size:30px; font-family: monospace"">ingresso</span>"," ","","exp-sent","ingresso","","",""
"","869","html-keyboard-response","175","294129","0.0-3.0-1.134","<span style=""font-size:30px; font-family: monospace"">para</span>"," ","","exp-sent","para","","",""
"","336","html-keyboard-response","176","294717","0.0-3.0-1.135","<span style=""font-size:30px; font-family: monospace"">o</span>"," ","","exp-sent","o","","",""
"","421","html-keyboard-response","177","295390","0.0-3.0-1.136","<span style=""font-size:30px; font-family: monospace"">evento.</span>"," ","","exp-sent","evento.","","",""
"","null","html-keyboard-response","178","296642","0.0-3.0-0.137-0.137","<span style= ""font-size:30px; font-family: monospace"">+</span>","null","fixation","","","","",""
"","183","html-keyboard-response","179","297078","0.0-3.0-1.137","<span style=""font-size:30px; font-family: monospace"">A</span>"," ","","exp-sent","A","","",""
"","689","html-keyboard-response","180","298019","0.0-3.0-1.138","<span style=""font-size:30px; font-family: monospace"">médica</span>"," ","","exp-sent","médica","","",""
"","889","html-keyboard-response","181","299160","0.0-3.0-1.139","<span style=""font-size:30px; font-family: monospace"">descobriu</span>"," ","","exp-sent","descobriu","","",""
"","402","html-keyboard-response","182","299814","0.0-3.0-1.140","<span style=""font-size:30px; font-family: monospace"">uma</span>"," ","","exp-sent","uma","","",""
"","483","html-keyboard-response","183","300550","0.0-3.0-1.141","<span style=""font-size:30px; font-family: monospace"">cura</span>"," ","","exp-sent","cura","","",""
"","478","html-keyboard-response","184","301281","0.0-3.0-1.142","<span style=""font-size:30px; font-family: monospace"">para</span>"," ","","exp-sent","para","","",""
"","439","html-keyboard-response","185","301972","0.0-3.0-1.143","<span style=""font-size:30px; font-family: monospace"">a</span>"," ","","exp-sent","a","","",""
"","675","html-keyboard-response","186","302900","0.0-3.0-1.144","<span style=""font-size:30px; font-family: monospace"">doença.</span>"," ","","exp-sent","doença.","","",""
"","null","html-keyboard-response","187","304152","0.0-3.0-0.145-0.145","<span style= ""font-size:30px; font-family: monospace"">+</span>","null","fixation","","","","",""
"","367","html-keyboard-response","188","304772","0.0-3.0-1.145","<span style=""font-size:30px; font-family: monospace"">O</span>"," ","","exp-sent","O","","",""
"","612","html-keyboard-response","189","305636","0.0-3.0-1.146","<span style=""font-size:30px; font-family: monospace"">menino</span>"," ","","exp-sent","menino","","",""
"","1172","html-keyboard-response","190","307061","0.0-3.0-1.147","<span style=""font-size:30px; font-family: monospace"">riscou</span>"," ","","exp-sent","riscou","","",""
"","1241","html-keyboard-response","191","308554","0.0-3.0-1.148","<span style=""font-size:30px; font-family: monospace"">o</span>"," ","","exp-sent","o","","",""
"","639","html-keyboard-response","192","309445","0.0-3.0-1.149","<span style=""font-size:30px; font-family: monospace"">caderno</span>"," ","","exp-sent","caderno","","",""
"","542","html-keyboard-response","193","310239","0.0-3.0-1.150","<span style=""font-size:30px; font-family: monospace"">com</span>"," ","","exp-sent","com","","",""
"","442","html-keyboard-response","194","310933","0.0-3.0-1.151","<span style=""font-size:30px; font-family: monospace"">a</span>"," ","","exp-sent","a","","",""
"","652","html-keyboard-response","195","311837","0.0-3.0-1.152","<span style=""font-size:30px; font-family: monospace"">caneta.</span>"," ","","comp","caneta.","","",""
"","26472","html-keyboard-response","196","338560","0.0-3.0-2.152-0.152","<span style=""font-size:30px; font-family: monospace"">O menino riscou a parede com a caneta?</span>","s","","comp","","O menino riscou a parede com a caneta?","não","false"
"","null","html-keyboard-response","197","340064","0.0-3.0-0.153-0.153","<span style= ""font-size:30px; font-family: monospace"">+</span>","null","fixation","","","","",""
"","1452","html-keyboard-response","198","341768","0.0-3.0-1.153","<span style=""font-size:30px; font-family: monospace"">As</span>"," ","","exp-sent","As","","",""
"","392","html-keyboard-response","199","342411","0.0-3.0-1.154","<span style=""font-size:30px; font-family: monospace"">crianças</span>"," ","","exp-sent","crianças","","",""
"","314","html-keyboard-response","200","342978","0.0-3.0-1.155","<span style=""font-size:30px; font-family: monospace"">viram</span>"," ","","exp-sent","viram","","",""
"","137","html-keyboard-response","201","343368","0.0-3.0-1.156","<span style=""font-size:30px; font-family: monospace"">um</span>"," ","","exp-sent","um","","",""
"","172","html-keyboard-response","202","343793","0.0-3.0-1.157","<span style=""font-size:30px; font-family: monospace"">vaga-lume</span>"," ","","exp-sent","vaga-lume","","",""
"","1419","html-keyboard-response","203","345463","0.0-3.0-1.158","<span style=""font-size:30px; font-family: monospace"">nos</span>"," ","","exp-sent","nos","","",""
"","2140","html-keyboard-response","204","347855","0.0-3.0-1.159","<span style=""font-size:30px; font-family: monospace"">arbustos.</span>"," ","","exp-sent","arbustos.","","",""
"","null","html-keyboard-response","205","349108","0.0-3.0-0.160-0.160","<span style= ""font-size:30px; font-family: monospace"">+</span>","null","fixation","","","","",""
"","619","html-keyboard-response","206","349981","0.0-3.0-1.160","<span style=""font-size:30px; font-family: monospace"">Ontem</span>"," ","","exp-sent","Ontem","","",""
"","440","html-keyboard-response","207","350673","0.0-3.0-1.161","<span style=""font-size:30px; font-family: monospace"">o</span>"," ","","exp-sent","o","","",""
"","560","html-keyboard-response","208","351486","0.0-3.0-1.162","<span style=""font-size:30px; font-family: monospace"">funcionário</span>"," ","","exp-sent","funcionário","","",""
"","443","html-keyboard-response","209","352181","0.0-3.0-1.163","<span style=""font-size:30px; font-family: monospace"">pediu</span>"," ","","exp-sent","pediu","","",""
"","1149","html-keyboard-response","210","353583","0.0-3.0-1.164","<span style=""font-size:30px; font-family: monospace"">autorização</span>"," ","","exp-sent","autorização","","",""
"","459","html-keyboard-response","211","354294","0.0-3.0-1.165","<span style=""font-size:30px; font-family: monospace"">para</span>"," ","","exp-sent","para","","",""
"","421","html-keyboard-response","212","354969","0.0-3.0-1.166","<span style=""font-size:30px; font-family: monospace"">a</span>"," ","","exp-sent","a","","",""
"","460","html-keyboard-response","213","355680","0.0-3.0-1.167","<span style=""font-size:30px; font-family: monospace"">colega.</span>"," ","","exp-sent","colega.","","",""
"","null","html-keyboard-response","214","356932","0.0-3.0-0.168-0.168","<span style= ""font-size:30px; font-family: monospace"">+</span>","null","fixation","","","","",""
"","509","html-keyboard-response","215","357693","0.0-3.0-1.168","<span style=""font-size:30px; font-family: monospace"">Eu</span>"," ","","exp-sent","Eu","","",""
"","531","html-keyboard-response","216","358476","0.0-3.0-1.169","<span style=""font-size:30px; font-family: monospace"">sempre</span>"," ","","exp-sent","sempre","","",""
"","621","html-keyboard-response","217","359349","0.0-3.0-1.170","<span style=""font-size:30px; font-family: monospace"">fujo</span>"," ","","exp-sent","fujo","","",""
"","573","html-keyboard-response","218","360174","0.0-3.0-1.171","<span style=""font-size:30px; font-family: monospace"">de</span>"," ","","exp-sent","de","","",""
"","1022","html-keyboard-response","219","361448","0.0-3.0-1.172","<span style=""font-size:30px; font-family: monospace"">conflito</span>"," ","","exp-sent","conflito","","",""
"","537","html-keyboard-response","220","362238","0.0-3.0-1.173","<span style=""font-size:30px; font-family: monospace"">com</span>"," ","","exp-sent","com","","",""
"","496","html-keyboard-response","221","362986","0.0-3.0-1.174","<span style=""font-size:30px; font-family: monospace"">as</span>"," ","","exp-sent","as","","",""
"","508","html-keyboard-response","222","363746","0.0-3.0-1.175","<span style=""font-size:30px; font-family: monospace"">pessoas.</span>"," ","","exp-sent","pessoas.","","",""
"","null","html-keyboard-response","223","364999","0.0-3.0-0.176-0.176","<span style= ""font-size:30px; font-family: monospace"">+</span>","null","fixation","","","","",""
"","545","html-keyboard-response","224","365796","0.0-3.0-1.176","<span style=""font-size:30px; font-family: monospace"">O</span>"," ","","exp-sent","O","","",""
"","522","html-keyboard-response","225","366570","0.0-3.0-1.177","<span style=""font-size:30px; font-family: monospace"">bolo</span>"," ","","exp-sent","bolo","","",""
"","489","html-keyboard-response","226","367311","0.0-3.0-1.178","<span style=""font-size:30px; font-family: monospace"">era</span>"," ","","exp-sent","era","","",""
"","541","html-keyboard-response","227","368104","0.0-3.0-1.179","<span style=""font-size:30px; font-family: monospace"">de</span>"," ","","exp-sent","de","","",""
"","771","html-keyboard-response","228","369127","0.0-3.0-1.180","<span style=""font-size:30px; font-family: monospace"">abacaxi</span>"," ","","exp-sent","abacaxi","","",""
"","469","html-keyboard-response","229","369849","0.0-3.0-1.181","<span style=""font-size:30px; font-family: monospace"">e</span>"," ","","exp-sent","e","","",""
"","519","html-keyboard-response","230","370620","0.0-3.0-1.182","<span style=""font-size:30px; font-family: monospace"">creme</span>"," ","","exp-sent","creme","","",""
"","477","html-keyboard-response","231","371349","0.0-3.0-1.183","<span style=""font-size:30px; font-family: monospace"">de</span>"," ","","exp-sent","de","","",""
"","446","html-keyboard-response","232","372048","0.0-3.0-1.184","<span style=""font-size:30px; font-family: monospace"">coco.</span>"," ","","exp-sent","coco.","","",""
"","null","html-keyboard-response","233","373301","0.0-3.0-0.185-0.185","<span style= ""font-size:30px; font-family: monospace"">+</span>","null","fixation","","","","",""
"","672","html-keyboard-response","234","374225","0.0-3.0-1.185","<span style=""font-size:30px; font-family: monospace"">As</span>"," ","","exp-sent","As","","",""
"","670","html-keyboard-response","235","375147","0.0-3.0-1.186","<span style=""font-size:30px; font-family: monospace"">crianças</span>"," ","","exp-sent","crianças","","",""
"","891","html-keyboard-response","236","376292","0.0-3.0-1.187","<span style=""font-size:30px; font-family: monospace"">brincaram</span>"," ","","exp-sent","brincaram","","",""
"","623","html-keyboard-response","237","377168","0.0-3.0-1.188","<span style=""font-size:30px; font-family: monospace"">com</span>"," ","","exp-sent","com","","",""
"","665","html-keyboard-response","238","378085","0.0-3.0-1.189","<span style=""font-size:30px; font-family: monospace"">bolhas</span>"," ","","exp-sent","bolhas","","",""
"","661","html-keyboard-response","239","378998","0.0-3.0-1.190","<span style=""font-size:30px; font-family: monospace"">no</span>"," ","","exp-sent","no","","",""
"","672","html-keyboard-response","240","379922","0.0-3.0-1.191","<span style=""font-size:30px; font-family: monospace"">banho.</span>"," ","","comp","banho.","","",""
"","7839","html-keyboard-response","241","388013","0.0-3.0-2.191-0.191","<span style=""font-size:30px; font-family: monospace"">As crianças brincaram com bolhas?</span>","s","","comp","","As crianças brincaram com bolhas?","sim","false"
"","null","html-keyboard-response","242","389514","0.0-3.0-0.192-0.192","<span style= ""font-size:30px; font-family: monospace"">+</span>","null","fixation","","","","",""
"","595","html-keyboard-response","243","390361","0.0-3.0-1.192","<span style=""font-size:30px; font-family: monospace"">A</span>"," ","","exp-sent","A","","",""
"","254","html-keyboard-response","244","390868","0.0-3.0-1.193","<span style=""font-size:30px; font-family: monospace"">senhora</span>"," ","","exp-sent","senhora","","",""
"","551","html-keyboard-response","245","391671","0.0-3.0-1.194","<span style=""font-size:30px; font-family: monospace"">cumprimentou</span>"," ","","exp-sent","cumprimentou","","",""
"","446","html-keyboard-response","246","392370","0.0-3.0-1.195","<span style=""font-size:30px; font-family: monospace"">o</span>"," ","","exp-sent","o","","",""
"","427","html-keyboard-response","247","393049","0.0-3.0-1.196","<span style=""font-size:30px; font-family: monospace"">operador</span>"," ","","exp-sent","operador","","",""
"","390","html-keyboard-response","248","393692","0.0-3.0-1.197","<span style=""font-size:30px; font-family: monospace"">de</span>"," ","","exp-sent","de","","",""
"","309","html-keyboard-response","249","394254","0.0-3.0-1.198","<span style=""font-size:30px; font-family: monospace"">caixa.</span>"," ","","exp-sent","caixa.","","",""
"","null","html-keyboard-response","250","395506","0.0-3.0-0.199-0.199","<span style= ""font-size:30px; font-family: monospace"">+</span>","null","fixation","","","","",""
"","224","html-keyboard-response","251","395982","0.0-3.0-1.199","<span style=""font-size:30px; font-family: monospace"">A</span>"," ","","exp-sent","A","","",""
"","539","html-keyboard-response","252","396773","0.0-3.0-1.200","<span style=""font-size:30px; font-family: monospace"">gente</span>"," ","","exp-sent","gente","","",""
"","315","html-keyboard-response","253","397341","0.0-3.0-1.201","<span style=""font-size:30px; font-family: monospace"">viu</span>"," ","","exp-sent","viu","","",""
"","404","html-keyboard-response","254","397997","0.0-3.0-1.202","<span style=""font-size:30px; font-family: monospace"">o</span>"," ","","exp-sent","o","","",""
"","2553","html-keyboard-response","255","400803","0.0-3.0-1.203","<span style=""font-size:30px; font-family: monospace"">eclipse</span>"," ","","exp-sent","eclipse","","",""
"","504","html-keyboard-response","256","401559","0.0-3.0-1.204","<span style=""font-size:30px; font-family: monospace"">lunar</span>"," ","","exp-sent","lunar","","",""
"","900","html-keyboard-response","257","402718","0.0-3.0-1.205","<span style=""font-size:30px; font-family: monospace"">durante</span>"," ","","exp-sent","durante","","",""
"","385","html-keyboard-response","258","403356","0.0-3.0-1.206","<span style=""font-size:30px; font-family: monospace"">o</span>"," ","","exp-sent","o","","",""
"","352","html-keyboard-response","259","403962","0.0-3.0-1.207","<span style=""font-size:30px; font-family: monospace"">dia.</span>"," ","","exp-sent","dia.","","",""
"","null","html-keyboard-response","260","405215","0.0-3.0-0.208-0.208","<span style= ""font-size:30px; font-family: monospace"">+</span>","null","fixation","","","","",""
"","436","html-keyboard-response","261","405903","0.0-3.0-1.208","<span style=""font-size:30px; font-family: monospace"">A</span>"," ","","exp-sent","A","","",""
"","328","html-keyboard-response","262","406483","0.0-3.0-1.209","<span style=""font-size:30px; font-family: monospace"">mordida</span>"," ","","exp-sent","mordida","","",""
"","689","html-keyboard-response","263","407424","0.0-3.0-1.210","<span style=""font-size:30px; font-family: monospace"">do</span>"," ","","exp-sent","do","","",""
"","1264","html-keyboard-response","264","408940","0.0-3.0-1.211","<span style=""font-size:30px; font-family: monospace"">cachorro</span>"," ","","exp-sent","cachorro","","",""
"","464","html-keyboard-response","265","409656","0.0-3.0-1.212","<span style=""font-size:30px; font-family: monospace"">voraz</span>"," ","","exp-sent","voraz","","",""
"","1022","html-keyboard-response","266","410931","0.0-3.0-1.213","<span style=""font-size:30px; font-family: monospace"">causou</span>"," ","","exp-sent","causou","","",""
"","438","html-keyboard-response","267","411622","0.0-3.0-1.214","<span style=""font-size:30px; font-family: monospace"">uma</span>"," ","","exp-sent","uma","","",""
"","972","html-keyboard-response","268","412846","0.0-3.0-1.215","<span style=""font-size:30px; font-family: monospace"">cicatriz.</span>"," ","","exp-sent","cicatriz.","","",""
"","null","html-keyboard-response","269","414098","0.0-3.0-0.216-0.216","<span style= ""font-size:30px; font-family: monospace"">+</span>","null","fixation","","","","",""
"","454","html-keyboard-response","270","414804","0.0-3.0-1.216","<span style=""font-size:30px; font-family: monospace"">Elas</span>"," ","","exp-sent","Elas","","",""
"","507","html-keyboard-response","271","415564","0.0-3.0-1.217","<span style=""font-size:30px; font-family: monospace"">não</span>"," ","","exp-sent","não","","",""
"","486","html-keyboard-response","272","416302","0.0-3.0-1.218","<span style=""font-size:30px; font-family: monospace"">viram</span>"," ","","exp-sent","viram","","",""
"","563","html-keyboard-response","273","417117","0.0-3.0-1.219","<span style=""font-size:30px; font-family: monospace"">nenhuma</span>"," ","","exp-sent","nenhuma","","",""
"","527","html-keyboard-response","274","417897","0.0-3.0-1.220","<span style=""font-size:30px; font-family: monospace"">diferença</span>"," ","","exp-sent","diferença","","",""
"","493","html-keyboard-response","275","418642","0.0-3.0-1.221","<span style=""font-size:30px; font-family: monospace"">entre</span>"," ","","exp-sent","entre","","",""
"","464","html-keyboard-response","276","419359","0.0-3.0-1.222","<span style=""font-size:30px; font-family: monospace"">os</span>"," ","","exp-sent","os","","",""
"","518","html-keyboard-response","277","420129","0.0-3.0-1.223","<span style=""font-size:30px; font-family: monospace"">textos.</span>"," ","","exp-sent","textos.","","",""
"","null","html-keyboard-response","278","421382","0.0-3.0-0.224-0.224","<span style= ""font-size:30px; font-family: monospace"">+</span>","null","fixation","","","","",""
"","616","html-keyboard-response","279","422251","0.0-3.0-1.224","<span style=""font-size:30px; font-family: monospace"">Amanhã</span>"," ","","exp-sent","Amanhã","","",""
"","459","html-keyboard-response","280","422962","0.0-3.0-1.225","<span style=""font-size:30px; font-family: monospace"">vai</span>"," ","","exp-sent","vai","","",""
"","431","html-keyboard-response","281","423645","0.0-3.0-1.226","<span style=""font-size:30px; font-family: monospace"">ter</span>"," ","","exp-sent","ter","","",""
"","473","html-keyboard-response","282","424370","0.0-3.0-1.227","<span style=""font-size:30px; font-family: monospace"">um</span>"," ","","exp-sent","um","","",""
"","433","html-keyboard-response","283","425055","0.0-3.0-1.228","<span style=""font-size:30px; font-family: monospace"">bazar</span>"," ","","exp-sent","bazar","","",""
"","465","html-keyboard-response","284","425772","0.0-3.0-1.229","<span style=""font-size:30px; font-family: monospace"">no</span>"," ","","exp-sent","no","","",""
"","543","html-keyboard-response","285","426568","0.0-3.0-1.230","<span style=""font-size:30px; font-family: monospace"">bairro.</span>"," ","","comp","bairro.","","",""
"","9733","html-keyboard-response","286","436554","0.0-3.0-2.230-0.230","<span style=""font-size:30px; font-family: monospace"">Amanhã vai acontecer um bazar no bairro?</span>","s","","comp","","Amanhã vai acontecer um bazar no bairro?","sim","false"
"","null","html-keyboard-response","287","438056","0.0-3.0-0.231-0.231","<span style= ""font-size:30px; font-family: monospace"">+</span>","null","fixation","","","","",""
"","1166","html-keyboard-response","288","439475","0.0-3.0-1.231","<span style=""font-size:30px; font-family: monospace"">No</span>"," ","","exp-sent","No","","",""
"","388","html-keyboard-response","289","440116","0.0-3.0-1.232","<span style=""font-size:30px; font-family: monospace"">passado</span>"," ","","exp-sent","passado","","",""
"","424","html-keyboard-response","290","440792","0.0-3.0-1.233","<span style=""font-size:30px; font-family: monospace"">houve</span>"," ","","exp-sent","houve","","",""
"","76","html-keyboard-response","291","441121","0.0-3.0-1.234","<span style=""font-size:30px; font-family: monospace"">uma</span>"," ","","exp-sent","uma","","",""
"","62","html-keyboard-response","292","441437","0.0-3.0-1.235","<span style=""font-size:30px; font-family: monospace"">rebelião</span>"," ","","exp-sent","rebelião","","",""
"","33","html-keyboard-response","293","441722","0.0-3.0-1.236","<span style=""font-size:30px; font-family: monospace"">nesta</span>"," ","","exp-sent","nesta","","",""
"","283","html-keyboard-response","294","442257","0.0-3.0-1.237","<span style=""font-size:30px; font-family: monospace"">cidade.</span>"," ","","exp-sent","cidade.","","",""
"","null","html-keyboard-response","295","443509","0.0-3.0-0.238-0.238","<span style= ""font-size:30px; font-family: monospace"">+</span>","null","fixation","","","","",""
"","459","html-keyboard-response","296","444220","0.0-3.0-1.238","<span style=""font-size:30px; font-family: monospace"">Ele</span>"," ","","exp-sent","Ele","","",""
"","368","html-keyboard-response","297","444840","0.0-3.0-1.239","<span style=""font-size:30px; font-family: monospace"">fundou</span>"," ","","exp-sent","fundou","","",""
"","370","html-keyboard-response","298","445462","0.0-3.0-1.240","<span style=""font-size:30px; font-family: monospace"">uma</span>"," ","","exp-sent","uma","","",""
"","406","html-keyboard-response","299","446121","0.0-3.0-1.241","<span style=""font-size:30px; font-family: monospace"">empresa</span>"," ","","exp-sent","empresa","","",""
"","400","html-keyboard-response","300","446772","0.0-3.0-1.242","<span style=""font-size:30px; font-family: monospace"">privada</span>"," ","","exp-sent","privada","","",""
"","392","html-keyboard-response","301","447416","0.0-3.0-1.243","<span style=""font-size:30px; font-family: monospace"">sem</span>"," ","","exp-sent","sem","","",""
"","388","html-keyboard-response","302","448057","0.0-3.0-1.244","<span style=""font-size:30px; font-family: monospace"">ajuda.</span>"," ","","exp-sent","ajuda.","","",""
"","null","html-keyboard-response","303","449309","0.0-3.0-0.245-0.245","<span style= ""font-size:30px; font-family: monospace"">+</span>","null","fixation","","","","",""
"","353","html-keyboard-response","304","449915","0.0-3.0-1.245","<span style=""font-size:30px; font-family: monospace"">As</span>"," ","","exp-sent","As","","",""
"","432","html-keyboard-response","305","450600","0.0-3.0-1.246","<span style=""font-size:30px; font-family: monospace"">meninas</span>"," ","","exp-sent","meninas","","",""
"","304","html-keyboard-response","306","451156","0.0-3.0-1.247","<span style=""font-size:30px; font-family: monospace"">encontraram</span>"," ","","exp-sent","encontraram","","",""
"","511","html-keyboard-response","307","451931","0.0-3.0-1.248","<span style=""font-size:30px; font-family: monospace"">um</span>"," ","","exp-sent","um","","",""
"","198","html-keyboard-response","308","452413","0.0-3.0-1.249","<span style=""font-size:30px; font-family: monospace"">rato</span>"," ","","exp-sent","rato","","",""
"","422","html-keyboard-response","309","453088","0.0-3.0-1.250","<span style=""font-size:30px; font-family: monospace"">dentro</span>"," ","","exp-sent","dentro","","",""
"","340","html-keyboard-response","310","453684","0.0-3.0-1.251","<span style=""font-size:30px; font-family: monospace"">de</span>"," ","","exp-sent","de","","",""
"","394","html-keyboard-response","311","454330","0.0-3.0-1.252","<span style=""font-size:30px; font-family: monospace"">casa.</span>"," ","","exp-sent","casa.","","",""
"","null","html-keyboard-response","312","455592","0.0-3.0-0.253-0.253","<span style= ""font-size:30px; font-family: monospace"">+</span>","null","fixation","","","","",""
"","247","html-keyboard-response","313","456094","0.0-3.0-1.253","<span style=""font-size:30px; font-family: monospace"">O</span>"," ","","exp-sent","O","","",""
"","229","html-keyboard-response","314","456576","0.0-3.0-1.254","<span style=""font-size:30px; font-family: monospace"">texto</span>"," ","","exp-sent","texto","","",""
"","329","html-keyboard-response","315","457156","0.0-3.0-1.255","<span style=""font-size:30px; font-family: monospace"">tinha</span>"," ","","exp-sent","tinha","","",""
"","261","html-keyboard-response","316","457669","0.0-3.0-1.256","<span style=""font-size:30px; font-family: monospace"">ideias</span>"," ","","exp-sent","ideias","","",""
"","369","html-keyboard-response","317","458290","0.0-3.0-1.257","<span style=""font-size:30px; font-family: monospace"">vagas</span>"," ","","exp-sent","vagas","","",""
"","387","html-keyboard-response","318","458929","0.0-3.0-1.258","<span style=""font-size:30px; font-family: monospace"">e</span>"," ","","exp-sent","e","","",""
"","552","html-keyboard-response","319","459733","0.0-3.0-1.259","<span style=""font-size:30px; font-family: monospace"">confusas.</span>"," ","","exp-sent","confusas.","","",""
"","null","html-keyboard-response","320","460986","0.0-3.0-0.260-0.260","<span style= ""font-size:30px; font-family: monospace"">+</span>","null","fixation","","","","",""
"","488","html-keyboard-response","321","461727","0.0-3.0-1.260","<span style=""font-size:30px; font-family: monospace"">As</span>"," ","","exp-sent","As","","",""
"","322","html-keyboard-response","322","462301","0.0-3.0-1.261","<span style=""font-size:30px; font-family: monospace"">crianças</span>"," ","","exp-sent","crianças","","",""
"","376","html-keyboard-response","323","462928","0.0-3.0-1.262","<span style=""font-size:30px; font-family: monospace"">viram</span>"," ","","exp-sent","viram","","",""
"","410","html-keyboard-response","324","463590","0.0-3.0-1.263","<span style=""font-size:30px; font-family: monospace"">a</span>"," ","","exp-sent","a","","",""
"","496","html-keyboard-response","325","464339","0.0-3.0-1.264","<span style=""font-size:30px; font-family: monospace"">acrobata</span>"," ","","exp-sent","acrobata","","",""
"","1221","html-keyboard-response","326","465815","0.0-3.0-1.265","<span style=""font-size:30px; font-family: monospace"">talentosa</span>"," ","","exp-sent","talentosa","","",""
"","400","html-keyboard-response","327","466466","0.0-3.0-1.266","<span style=""font-size:30px; font-family: monospace"">no</span>"," ","","exp-sent","no","","",""
"","597","html-keyboard-response","328","467315","0.0-3.0-1.267","<span style=""font-size:30px; font-family: monospace"">circo.</span>"," ","","comp","circo.","","",""
"","4592","html-keyboard-response","329","472160","0.0-3.0-2.267-0.267","<span style=""font-size:30px; font-family: monospace"">As crianças viram o palhaço no circo?</span>","n","","comp","","As crianças viram o palhaço no circo?","não","false"
"","null","html-keyboard-response","330","473662","0.0-3.0-0.268-0.268","<span style= ""font-size:30px; font-family: monospace"">+</span>","null","fixation","","","","",""
"","2288","html-keyboard-response","331","476202","0.0-3.0-1.268","<span style=""font-size:30px; font-family: monospace"">Minha</span>"," ","","exp-sent","Minha","","",""
"","589","html-keyboard-response","332","477043","0.0-3.0-1.269","<span style=""font-size:30px; font-family: monospace"">prima</span>"," ","","exp-sent","prima","","",""
"","513","html-keyboard-response","333","477808","0.0-3.0-1.270","<span style=""font-size:30px; font-family: monospace"">trocou</span>"," ","","exp-sent","trocou","","",""
"","672","html-keyboard-response","334","478733","0.0-3.0-1.271","<span style=""font-size:30px; font-family: monospace"">a</span>"," ","","exp-sent","a","","",""
"","802","html-keyboard-response","335","479787","0.0-3.0-1.272","<span style=""font-size:30px; font-family: monospace"">tela</span>"," ","","exp-sent","tela","","",""
"","323","html-keyboard-response","336","480362","0.0-3.0-1.273","<span style=""font-size:30px; font-family: monospace"">do</span>"," ","","exp-sent","do","","",""
"","447","html-keyboard-response","337","481061","0.0-3.0-1.274","<span style=""font-size:30px; font-family: monospace"">celular</span>"," ","","exp-sent","celular","","",""
"","367","html-keyboard-response","338","481681","0.0-3.0-1.275","<span style=""font-size:30px; font-family: monospace"">duas</span>"," ","","exp-sent","duas","","",""
"","342","html-keyboard-response","339","482275","0.0-3.0-1.276","<span style=""font-size:30px; font-family: monospace"">vezes.</span>"," ","","exp-sent","vezes.","","",""
"","null","html-keyboard-response","340","483528","0.0-3.0-0.277-0.277","<span style= ""font-size:30px; font-family: monospace"">+</span>","null","fixation","","","","",""
"","597","html-keyboard-response","341","484377","0.0-3.0-1.277","<span style=""font-size:30px; font-family: monospace"">Agora</span>"," ","","exp-sent","Agora","","",""
"","444","html-keyboard-response","342","485073","0.0-3.0-1.278","<span style=""font-size:30px; font-family: monospace"">a</span>"," ","","exp-sent","a","","",""
"","439","html-keyboard-response","343","485764","0.0-3.0-1.279","<span style=""font-size:30px; font-family: monospace"">minha</span>"," ","","exp-sent","minha","","",""
"","443","html-keyboard-response","344","486459","0.0-3.0-1.280","<span style=""font-size:30px; font-family: monospace"">única</span>"," ","","exp-sent","única","","",""
"","812","html-keyboard-response","345","487524","0.0-3.0-1.281","<span style=""font-size:30px; font-family: monospace"">preocupação</span>"," ","","exp-sent","preocupação","","",""
"","401","html-keyboard-response","346","488178","0.0-3.0-1.282","<span style=""font-size:30px; font-family: monospace"">é</span>"," ","","exp-sent","é","","",""
"","691","html-keyboard-response","347","489121","0.0-3.0-1.283","<span style=""font-size:30px; font-family: monospace"">um</span>"," ","","exp-sent","um","","",""
"","586","html-keyboard-response","348","489960","0.0-3.0-1.284","<span style=""font-size:30px; font-family: monospace"">descanso</span>"," ","","exp-sent","descanso","","",""
"","402","html-keyboard-response","349","490613","0.0-3.0-1.285","<span style=""font-size:30px; font-family: monospace"">tranquilo.</span>"," ","","exp-sent","tranquilo.","","",""
"","null","html-keyboard-response","350","491868","0.0-3.0-0.286-0.286","<span style= ""font-size:30px; font-family: monospace"">+</span>","null","fixation","","","","",""
"","455","html-keyboard-response","351","492576","0.0-3.0-1.286","<span style=""font-size:30px; font-family: monospace"">A</span>"," ","","exp-sent","A","","",""
"","481","html-keyboard-response","352","493309","0.0-3.0-1.287","<span style=""font-size:30px; font-family: monospace"">criança</span>"," ","","exp-sent","criança","","",""
"","323","html-keyboard-response","353","493884","0.0-3.0-1.288","<span style=""font-size:30px; font-family: monospace"">ganhou</span>"," ","","exp-sent","ganhou","","",""
"","452","html-keyboard-response","354","494588","0.0-3.0-1.289","<span style=""font-size:30px; font-family: monospace"">um</span>"," ","","exp-sent","um","","",""
"","435","html-keyboard-response","355","495276","0.0-3.0-1.290","<span style=""font-size:30px; font-family: monospace"">presente</span>"," ","","exp-sent","presente","","",""
"","507","html-keyboard-response","356","496035","0.0-3.0-1.291","<span style=""font-size:30px; font-family: monospace"">maravilhoso.</span>"," ","","exp-sent","maravilhoso.","","",""
"","null","html-keyboard-response","357","497287","0.0-3.0-0.292-0.292","<span style= ""font-size:30px; font-family: monospace"">+</span>","null","fixation","","","","",""
"","5","html-keyboard-response","358","497545","0.0-3.0-1.292","<span style=""font-size:30px; font-family: monospace"">Os</span>"," ","","exp-sent","Os","","",""
"","546","html-keyboard-response","359","498345","0.0-3.0-1.293","<span style=""font-size:30px; font-family: monospace"">bichos</span>"," ","","exp-sent","bichos","","",""
"","432","html-keyboard-response","360","499030","0.0-3.0-1.294","<span style=""font-size:30px; font-family: monospace"">têm</span>"," ","","exp-sent","têm","","",""
"","540","html-keyboard-response","361","499823","0.0-3.0-1.295","<span style=""font-size:30px; font-family: monospace"">um</span>"," ","","exp-sent","um","","",""
"","1462","html-keyboard-response","362","501536","0.0-3.0-1.296","<span style=""font-size:30px; font-family: monospace"">instinto</span>"," ","","exp-sent","instinto","","",""
"","491","html-keyboard-response","363","502279","0.0-3.0-1.297","<span style=""font-size:30px; font-family: monospace"">de</span>"," ","","exp-sent","de","","",""
"","355","html-keyboard-response","364","502888","0.0-3.0-1.298","<span style=""font-size:30px; font-family: monospace"">sobrevivência</span>"," ","","exp-sent","sobrevivência","","",""
"","766","html-keyboard-response","365","503906","0.0-3.0-1.299","<span style=""font-size:30px; font-family: monospace"">forte.</span>"," ","","exp-sent","forte.","","",""
"","null","html-keyboard-response","366","505159","0.0-3.0-0.300-0.300","<span style= ""font-size:30px; font-family: monospace"">+</span>","null","fixation","","","","",""
"","590","html-keyboard-response","367","506002","0.0-3.0-1.300","<span style=""font-size:30px; font-family: monospace"">Aquele</span>"," ","","exp-sent","Aquele","","",""
"","557","html-keyboard-response","368","506810","0.0-3.0-1.301","<span style=""font-size:30px; font-family: monospace"">menino</span>"," ","","exp-sent","menino","","",""
"","331","html-keyboard-response","369","507393","0.0-3.0-1.302","<span style=""font-size:30px; font-family: monospace"">alto</span>"," ","","exp-sent","alto","","",""
"","451","html-keyboard-response","370","508096","0.0-3.0-1.303","<span style=""font-size:30px; font-family: monospace"">é</span>"," ","","exp-sent","é","","",""
"","412","html-keyboard-response","371","508761","0.0-3.0-1.304","<span style=""font-size:30px; font-family: monospace"">exibido</span>"," ","","exp-sent","exibido","","",""
"","509","html-keyboard-response","372","509523","0.0-3.0-1.305","<span style=""font-size:30px; font-family: monospace"">e</span>"," ","","exp-sent","e","","",""
"","401","html-keyboard-response","373","510177","0.0-3.0-1.306","<span style=""font-size:30px; font-family: monospace"">sovina.</span>"," ","","comp","sovina.","","",""
"","6018","html-keyboard-response","374","516447","0.0-3.0-2.306-0.306","<span style=""font-size:30px; font-family: monospace"">Aquele menino é humilde?</span>","n","","comp","","Aquele menino é humilde?","não","false"
"","null","html-keyboard-response","375","517949","0.0-3.0-0.307-0.307","<span style= ""font-size:30px; font-family: monospace"">+</span>","null","fixation","","","","",""
"","206","html-keyboard-response","376","518408","0.0-3.0-1.307","<span style=""font-size:30px; font-family: monospace"">Eu</span>"," ","","exp-sent","Eu","","",""
"","508","html-keyboard-response","377","519168","0.0-3.0-1.308","<span style=""font-size:30px; font-family: monospace"">gosto</span>"," ","","exp-sent","gosto","","",""
"","182","html-keyboard-response","378","519603","0.0-3.0-1.309","<span style=""font-size:30px; font-family: monospace"">de</span>"," ","","exp-sent","de","","",""
"","317","html-keyboard-response","379","520173","0.0-3.0-1.310","<span style=""font-size:30px; font-family: monospace"">molho</span>"," ","","exp-sent","molho","","",""
"","572","html-keyboard-response","380","520998","0.0-3.0-1.311","<span style=""font-size:30px; font-family: monospace"">picante</span>"," ","","exp-sent","picante","","",""
"","240","html-keyboard-response","381","521491","0.0-3.0-1.312","<span style=""font-size:30px; font-family: monospace"">nas</span>"," ","","exp-sent","nas","","",""
"","729","html-keyboard-response","382","522471","0.0-3.0-1.313","<span style=""font-size:30px; font-family: monospace"">batatas.</span>"," ","","exp-sent","batatas.","","",""
"","null","html-keyboard-response","383","523724","0.0-3.0-0.314-0.314","<span style= ""font-size:30px; font-family: monospace"">+</span>","null","fixation","","","","",""
"","604","html-keyboard-response","384","524581","0.0-3.0-1.314","<span style=""font-size:30px; font-family: monospace"">As</span>"," ","","exp-sent","As","","",""
"","318","html-keyboard-response","385","525151","0.0-3.0-1.315","<span style=""font-size:30px; font-family: monospace"">pessoas</span>"," ","","exp-sent","pessoas","","",""
"","32","html-keyboard-response","386","525435","0.0-3.0-1.316","<span style=""font-size:30px; font-family: monospace"">têm</span>"," ","","exp-sent","têm","","",""
"","451","html-keyboard-response","387","526138","0.0-3.0-1.317","<span style=""font-size:30px; font-family: monospace"">sua</span>"," ","","exp-sent","sua","","",""
"","224","html-keyboard-response","388","526626","0.0-3.0-1.318","<span style=""font-size:30px; font-family: monospace"">liberdade</span>"," ","","exp-sent","liberdade","","",""
"","380","html-keyboard-response","389","527258","0.0-3.0-1.319","<span style=""font-size:30px; font-family: monospace"">até</span>"," ","","exp-sent","até","","",""
"","166","html-keyboard-response","390","527677","0.0-3.0-1.320","<span style=""font-size:30px; font-family: monospace"">certo</span>"," ","","exp-sent","certo","","",""
"","346","html-keyboard-response","391","528276","0.0-3.0-1.321","<span style=""font-size:30px; font-family: monospace"">ponto.</span>"," ","","exp-sent","ponto.","","",""
"","null","html-keyboard-response","392","529529","0.0-3.0-0.322-0.322","<span style= ""font-size:30px; font-family: monospace"">+</span>","null","fixation","","","","",""
"","313","html-keyboard-response","393","530094","0.0-3.0-1.322","<span style=""font-size:30px; font-family: monospace"">A</span>"," ","","exp-sent","A","","",""
"","531","html-keyboard-response","394","530878","0.0-3.0-1.323","<span style=""font-size:30px; font-family: monospace"">empresa</span>"," ","","exp-sent","empresa","","",""
"","257","html-keyboard-response","395","531388","0.0-3.0-1.324","<span style=""font-size:30px; font-family: monospace"">enviou</span>"," ","","exp-sent","enviou","","",""
"","348","html-keyboard-response","396","531987","0.0-3.0-1.325","<span style=""font-size:30px; font-family: monospace"">o</span>"," ","","exp-sent","o","","",""
"","1081","html-keyboard-response","397","533320","0.0-3.0-1.326","<span style=""font-size:30px; font-family: monospace"">aviso</span>"," ","","exp-sent","aviso","","",""
"","204","html-keyboard-response","398","533777","0.0-3.0-1.327","<span style=""font-size:30px; font-family: monospace"">hoje</span>"," ","","exp-sent","hoje","","",""
"","356","html-keyboard-response","399","534386","0.0-3.0-1.328","<span style=""font-size:30px; font-family: monospace"">de</span>"," ","","exp-sent","de","","",""
"","242","html-keyboard-response","400","534879","0.0-3.0-1.329","<span style=""font-size:30px; font-family: monospace"">tarde.</span>"," ","","exp-sent","tarde.","","",""
"","null","html-keyboard-response","401","536133","0.0-3.0-0.330-0.330","<span style= ""font-size:30px; font-family: monospace"">+</span>","null","fixation","","","","",""
"","168","html-keyboard-response","402","536553","0.0-3.0-1.330","<span style=""font-size:30px; font-family: monospace"">A</span>"," ","","exp-sent","A","","",""
"","446","html-keyboard-response","403","537250","0.0-3.0-1.331","<span style=""font-size:30px; font-family: monospace"">loja</span>"," ","","exp-sent","loja","","",""
"","275","html-keyboard-response","404","537777","0.0-3.0-1.332","<span style=""font-size:30px; font-family: monospace"">vende</span>"," ","","exp-sent","vende","","",""
"","411","html-keyboard-response","405","538441","0.0-3.0-1.333","<span style=""font-size:30px; font-family: monospace"">tanto</span>"," ","","exp-sent","tanto","","",""
"","350","html-keyboard-response","406","539043","0.0-3.0-1.334","<span style=""font-size:30px; font-family: monospace"">frituras</span>"," ","","exp-sent","frituras","","",""
"","747","html-keyboard-response","407","540042","0.0-3.0-1.335","<span style=""font-size:30px; font-family: monospace"">quanto</span>"," ","","exp-sent","quanto","","",""
"","386","html-keyboard-response","408","540680","0.0-3.0-1.336","<span style=""font-size:30px; font-family: monospace"">comidas</span>"," ","","exp-sent","comidas","","",""
"","422","html-keyboard-response","409","541354","0.0-3.0-1.337","<span style=""font-size:30px; font-family: monospace"">leves.</span>"," ","","exp-sent","leves.","","",""
"","null","html-keyboard-response","410","542606","0.0-3.0-0.338-0.338","<span style= ""font-size:30px; font-family: monospace"">+</span>","null","fixation","","","","",""
"","520","html-keyboard-response","411","543379","0.0-3.0-1.338","<span style=""font-size:30px; font-family: monospace"">As</span>"," ","","exp-sent","As","","",""
"","480","html-keyboard-response","412","544110","0.0-3.0-1.339","<span style=""font-size:30px; font-family: monospace"">cadeiras</span>"," ","","exp-sent","cadeiras","","",""
"","439","html-keyboard-response","413","544801","0.0-3.0-1.340","<span style=""font-size:30px; font-family: monospace"">azuis</span>"," ","","exp-sent","azuis","","",""
"","581","html-keyboard-response","414","545634","0.0-3.0-1.341","<span style=""font-size:30px; font-family: monospace"">da</span>"," ","","exp-sent","da","","",""
"","571","html-keyboard-response","415","546458","0.0-3.0-1.342","<span style=""font-size:30px; font-family: monospace"">sala</span>"," ","","exp-sent","sala","","",""
"","321","html-keyboard-response","416","547032","0.0-3.0-1.343","<span style=""font-size:30px; font-family: monospace"">eram</span>"," ","","exp-sent","eram","","",""
"","398","html-keyboard-response","417","547682","0.0-3.0-1.344","<span style=""font-size:30px; font-family: monospace"">da</span>"," ","","exp-sent","da","","",""
"","1199","html-keyboard-response","418","549133","0.0-3.0-1.345","<span style=""font-size:30px; font-family: monospace"">minha</span>"," ","","exp-sent","minha","","",""
"","535","html-keyboard-response","419","549920","0.0-3.0-1.346","<span style=""font-size:30px; font-family: monospace"">vó.</span>"," ","","comp","vó.","","",""
"","7807","html-keyboard-response","420","557980","0.0-3.0-2.346-0.346","<span style=""font-size:30px; font-family: monospace"">As cadeiras eram da avó?</span>","s","","comp","","As cadeiras eram da avó?","sim","false"
"","null","html-keyboard-response","421","559484","0.0-3.0-0.347-0.347","<span style= ""font-size:30px; font-family: monospace"">+</span>","null","fixation","","","","",""
"","606","html-keyboard-response","422","560343","0.0-3.0-1.347","<span style=""font-size:30px; font-family: monospace"">Barulho</span>"," ","","exp-sent","Barulho","","",""
"","253","html-keyboard-response","423","560849","0.0-3.0-1.348","<span style=""font-size:30px; font-family: monospace"">de</span>"," ","","exp-sent","de","","",""
"","53","html-keyboard-response","424","561154","0.0-3.0-1.349","<span style=""font-size:30px; font-family: monospace"">carros</span>"," ","","exp-sent","carros","","",""
"","46","html-keyboard-response","425","561453","0.0-3.0-1.350","<span style=""font-size:30px; font-family: monospace"">é</span>"," ","","exp-sent","é","","",""
"","196","html-keyboard-response","426","561900","0.0-3.0-1.351","<span style=""font-size:30px; font-family: monospace"">irritante</span>"," ","","exp-sent","irritante","","",""
"","655","html-keyboard-response","427","562808","0.0-3.0-1.352","<span style=""font-size:30px; font-family: monospace"">para</span>"," ","","exp-sent","para","","",""
"","102","html-keyboard-response","428","563165","0.0-3.0-1.353","<span style=""font-size:30px; font-family: monospace"">a</span>"," ","","exp-sent","a","","",""
"","377","html-keyboard-response","429","563794","0.0-3.0-1.354","<span style=""font-size:30px; font-family: monospace"">moça.</span>"," ","","exp-sent","moça.","","",""
"","null","html-keyboard-response","430","565048","0.0-3.0-0.355-0.355","<span style= ""font-size:30px; font-family: monospace"">+</span>","null","fixation","","","","",""
"","994","html-keyboard-response","431","566294","0.0-3.0-1.355","<span style=""font-size:30px; font-family: monospace"">A</span>"," ","","exp-sent","A","","",""
"","570","html-keyboard-response","432","567117","0.0-3.0-1.356","<span style=""font-size:30px; font-family: monospace"">loja</span>"," ","","exp-sent","loja","","",""
"","633","html-keyboard-response","433","568002","0.0-3.0-1.357","<span style=""font-size:30px; font-family: monospace"">também</span>"," ","","exp-sent","também","","",""
"","305","html-keyboard-response","434","568561","0.0-3.0-1.358","<span style=""font-size:30px; font-family: monospace"">vende</span>"," ","","exp-sent","vende","","",""
"","425","html-keyboard-response","435","569238","0.0-3.0-1.359","<span style=""font-size:30px; font-family: monospace"">taça</span>"," ","","exp-sent","taça","","",""
"","351","html-keyboard-response","436","569841","0.0-3.0-1.360","<span style=""font-size:30px; font-family: monospace"">de</span>"," ","","exp-sent","de","","",""
"","355","html-keyboard-response","437","570450","0.0-3.0-1.361","<span style=""font-size:30px; font-family: monospace"">vinho</span>"," ","","exp-sent","vinho","","",""
"","384","html-keyboard-response","438","571085","0.0-3.0-1.362","<span style=""font-size:30px; font-family: monospace"">e</span>"," ","","exp-sent","e","","",""
"","436","html-keyboard-response","439","571773","0.0-3.0-1.363","<span style=""font-size:30px; font-family: monospace"">espumante.</span>"," ","","exp-sent","espumante.","","",""
"","null","html-keyboard-response","440","573026","0.0-3.0-0.364-0.364","<span style= ""font-size:30px; font-family: monospace"">+</span>","null","fixation","","","","",""
"","388","html-keyboard-response","441","573667","0.0-3.0-1.364","<span style=""font-size:30px; font-family: monospace"">A</span>"," ","","exp-sent","A","","",""
"","386","html-keyboard-response","442","574305","0.0-3.0-1.365","<span style=""font-size:30px; font-family: monospace"">bruxa</span>"," ","","exp-sent","bruxa","","",""
"","351","html-keyboard-response","443","574908","0.0-3.0-1.366","<span style=""font-size:30px; font-family: monospace"">tinha</span>"," ","","exp-sent","tinha","","",""
"","393","html-keyboard-response","444","575554","0.0-3.0-1.367","<span style=""font-size:30px; font-family: monospace"">uma</span>"," ","","exp-sent","uma","","",""
"","444","html-keyboard-response","445","576250","0.0-3.0-1.368","<span style=""font-size:30px; font-family: monospace"">vassoura</span>"," ","","exp-sent","vassoura","","",""
"","515","html-keyboard-response","446","577019","0.0-3.0-1.369","<span style=""font-size:30px; font-family: monospace"">e</span>"," ","","exp-sent","e","","",""
"","417","html-keyboard-response","447","577688","0.0-3.0-1.370","<span style=""font-size:30px; font-family: monospace"">um</span>"," ","","exp-sent","um","","",""
"","464","html-keyboard-response","448","578405","0.0-3.0-1.371","<span style=""font-size:30px; font-family: monospace"">gato.</span>"," ","","exp-sent","gato.","","",""
"","null","html-keyboard-response","449","579658","0.0-3.0-0.372-0.372","<span style= ""font-size:30px; font-family: monospace"">+</span>","null","fixation","","","","",""
"","514","html-keyboard-response","450","580425","0.0-3.0-1.372","<span style=""font-size:30px; font-family: monospace"">Eu</span>"," ","","exp-sent","Eu","","",""
"","477","html-keyboard-response","451","581155","0.0-3.0-1.373","<span style=""font-size:30px; font-family: monospace"">me</span>"," ","","exp-sent","me","","",""
"","1888","html-keyboard-response","452","583295","0.0-3.0-1.374","<span style=""font-size:30px; font-family: monospace"">divirto</span>"," ","","exp-sent","divirto","","",""
"","464","html-keyboard-response","453","584012","0.0-3.0-1.375","<span style=""font-size:30px; font-family: monospace"">em</span>"," ","","exp-sent","em","","",""
"","483","html-keyboard-response","454","584747","0.0-3.0-1.376","<span style=""font-size:30px; font-family: monospace"">festas</span>"," ","","exp-sent","festas","","",""
"","688","html-keyboard-response","455","585688","0.0-3.0-1.377","<span style=""font-size:30px; font-family: monospace"">de</span>"," ","","exp-sent","de","","",""
"","875","html-keyboard-response","456","586816","0.0-3.0-1.378","<span style=""font-size:30px; font-family: monospace"">criança.</span>"," ","","exp-sent","criança.","","",""
"","null","html-keyboard-response","457","588068","0.0-3.0-0.379-0.379","<span style= ""font-size:30px; font-family: monospace"">+</span>","null","fixation","","","","",""
"","203","html-keyboard-response","458","588524","0.0-3.0-1.379","<span style=""font-size:30px; font-family: monospace"">A</span>"," ","","exp-sent","A","","",""
"","537","html-keyboard-response","459","589313","0.0-3.0-1.380","<span style=""font-size:30px; font-family: monospace"">janela</span>"," ","","exp-sent","janela","","",""
"","354","html-keyboard-response","460","589919","0.0-3.0-1.381","<span style=""font-size:30px; font-family: monospace"">alta</span>"," ","","exp-sent","alta","","",""
"","383","html-keyboard-response","461","590556","0.0-3.0-1.382","<span style=""font-size:30px; font-family: monospace"">estava</span>"," ","","exp-sent","estava","","",""
"","432","html-keyboard-response","462","591242","0.0-3.0-1.383","<span style=""font-size:30px; font-family: monospace"">quebrada</span>"," ","","exp-sent","quebrada","","",""
"","561","html-keyboard-response","463","592056","0.0-3.0-1.384","<span style=""font-size:30px; font-family: monospace"">desde</span>"," ","","exp-sent","desde","","",""
"","594","html-keyboard-response","464","592902","0.0-3.0-1.385","<span style=""font-size:30px; font-family: monospace"">ontem.</span>"," ","","comp","ontem.","","",""
"","5445","html-keyboard-response","465","598600","0.0-3.0-2.385-0.385","<span style=""font-size:30px; font-family: monospace"">A janela alta estava quebrada?</span>","s","","comp","","A janela alta estava quebrada?","sim","false"
"","null","html-keyboard-response","466","600104","0.0-3.0-0.386-0.386","<span style= ""font-size:30px; font-family: monospace"">+</span>","null","fixation","","","","",""
"","452","html-keyboard-response","467","600808","0.0-3.0-1.386","<span style=""font-size:30px; font-family: monospace"">Este</span>"," ","","exp-sent","Este","","",""
"","394","html-keyboard-response","468","601455","0.0-3.0-1.387","<span style=""font-size:30px; font-family: monospace"">conto</span>"," ","","exp-sent","conto","","",""
"","42","html-keyboard-response","469","601749","0.0-3.0-1.388","<span style=""font-size:30px; font-family: monospace"">tem</span>"," ","","exp-sent","tem","","",""
"","119","html-keyboard-response","470","602121","0.0-3.0-1.389","<span style=""font-size:30px; font-family: monospace"">um</span>"," ","","exp-sent","um","","",""
"","517","html-keyboard-response","471","602891","0.0-3.0-1.390","<span style=""font-size:30px; font-family: monospace"">final</span>"," ","","exp-sent","final","","",""
"","96","html-keyboard-response","472","603239","0.0-3.0-1.391","<span style=""font-size:30px; font-family: monospace"">perfeito.</span>"," ","","exp-sent","perfeito.","","",""
"","null","html-keyboard-response","473","604492","0.0-3.0-0.392-0.392","<span style= ""font-size:30px; font-family: monospace"">+</span>","null","fixation","","","","",""
"","436","html-keyboard-response","474","605181","0.0-3.0-1.392","<span style=""font-size:30px; font-family: monospace"">Ele</span>"," ","","exp-sent","Ele","","",""
"","367","html-keyboard-response","475","605800","0.0-3.0-1.393","<span style=""font-size:30px; font-family: monospace"">precisa</span>"," ","","exp-sent","precisa","","",""
"","297","html-keyboard-response","476","606348","0.0-3.0-1.394","<span style=""font-size:30px; font-family: monospace"">de</span>"," ","","exp-sent","de","","",""
"","221","html-keyboard-response","477","606822","0.0-3.0-1.395","<span style=""font-size:30px; font-family: monospace"">um</span>"," ","","exp-sent","um","","",""
"","475","html-keyboard-response","478","607549","0.0-3.0-1.396","<span style=""font-size:30px; font-family: monospace"">protetor</span>"," ","","exp-sent","protetor","","",""
"","382","html-keyboard-response","479","608184","0.0-3.0-1.397","<span style=""font-size:30px; font-family: monospace"">de</span>"," ","","exp-sent","de","","",""
"","336","html-keyboard-response","480","608772","0.0-3.0-1.398","<span style=""font-size:30px; font-family: monospace"">ouvido.</span>"," ","","exp-sent","ouvido.","","",""
"","null","html-keyboard-response","481","610025","0.0-3.0-0.399-0.399","<span style= ""font-size:30px; font-family: monospace"">+</span>","null","fixation","","","","",""
"","16","html-keyboard-response","482","610294","0.0-3.0-1.399","<span style=""font-size:30px; font-family: monospace"">Os</span>"," ","","exp-sent","Os","","",""
"","670","html-keyboard-response","483","611216","0.0-3.0-1.400","<span style=""font-size:30px; font-family: monospace"">hábitos</span>"," ","","exp-sent","hábitos","","",""
"","395","html-keyboard-response","484","611865","0.0-3.0-1.401","<span style=""font-size:30px; font-family: monospace"">de</span>"," ","","exp-sent","de","","",""
"","519","html-keyboard-response","485","612674","0.0-3.0-1.402","<span style=""font-size:30px; font-family: monospace"">lugares</span>"," ","","exp-sent","lugares","","",""
"","388","html-keyboard-response","486","613315","0.0-3.0-1.403","<span style=""font-size:30px; font-family: monospace"">diferentes</span>"," ","","exp-sent","diferentes","","",""
"","523","html-keyboard-response","487","614090","0.0-3.0-1.404","<span style=""font-size:30px; font-family: monospace"">são</span>"," ","","exp-sent","são","","",""
"","501","html-keyboard-response","488","614844","0.0-3.0-1.405","<span style=""font-size:30px; font-family: monospace"">muito</span>"," ","","exp-sent","muito","","",""
"","425","html-keyboard-response","489","615521","0.0-3.0-1.406","<span style=""font-size:30px; font-family: monospace"">lindos.</span>"," ","","exp-sent","lindos.","","",""
"","null","html-keyboard-response","490","616774","0.0-3.0-0.407-0.407","<span style= ""font-size:30px; font-family: monospace"">+</span>","null","fixation","","","","",""
"","591","html-keyboard-response","491","617618","0.0-3.0-1.407","<span style=""font-size:30px; font-family: monospace"">O</span>"," ","","exp-sent","O","","",""
"","533","html-keyboard-response","492","618404","0.0-3.0-1.408","<span style=""font-size:30px; font-family: monospace"">médico</span>"," ","","exp-sent","médico","","",""
"","778","html-keyboard-response","493","619434","0.0-3.0-1.409","<span style=""font-size:30px; font-family: monospace"">corrigiu</span>"," ","","exp-sent","corrigiu","","",""
"","388","html-keyboard-response","494","620074","0.0-3.0-1.410","<span style=""font-size:30px; font-family: monospace"">a</span>"," ","","exp-sent","a","","",""
"","630","html-keyboard-response","495","620956","0.0-3.0-1.411","<span style=""font-size:30px; font-family: monospace"">postura</span>"," ","","exp-sent","postura","","",""
"","420","html-keyboard-response","496","621629","0.0-3.0-1.412","<span style=""font-size:30px; font-family: monospace"">das</span>"," ","","exp-sent","das","","",""
"","598","html-keyboard-response","497","622491","0.0-3.0-1.413","<span style=""font-size:30px; font-family: monospace"">costas</span>"," ","","exp-sent","costas","","",""
"","641","html-keyboard-response","498","623384","0.0-3.0-1.414","<span style=""font-size:30px; font-family: monospace"">da</span>"," ","","exp-sent","da","","",""
"","664","html-keyboard-response","499","624301","0.0-3.0-1.415","<span style=""font-size:30px; font-family: monospace"">pessoa.</span>"," ","","exp-sent","pessoa.","","",""
"","null","html-keyboard-response","500","625555","0.0-3.0-0.416-0.416","<span style= ""font-size:30px; font-family: monospace"">+</span>","null","fixation","","","","",""
"","578","html-keyboard-response","501","626386","0.0-3.0-1.416","<span style=""font-size:30px; font-family: monospace"">Aquele</span>"," ","","exp-sent","Aquele","","",""
"","756","html-keyboard-response","502","627394","0.0-3.0-1.417","<span style=""font-size:30px; font-family: monospace"">era</span>"," ","","exp-sent","era","","",""
"","530","html-keyboard-response","503","628177","0.0-3.0-1.418","<span style=""font-size:30px; font-family: monospace"">um</span>"," ","","exp-sent","um","","",""
"","409","html-keyboard-response","504","628838","0.0-3.0-1.419","<span style=""font-size:30px; font-family: monospace"">caso</span>"," ","","exp-sent","caso","","",""
"","469","html-keyboard-response","505","629560","0.0-3.0-1.420","<span style=""font-size:30px; font-family: monospace"">real</span>"," ","","exp-sent","real","","",""
"","457","html-keyboard-response","506","630269","0.0-3.0-1.421","<span style=""font-size:30px; font-family: monospace"">de</span>"," ","","exp-sent","de","","",""
"","1149","html-keyboard-response","507","631671","0.0-3.0-1.422","<span style=""font-size:30px; font-family: monospace"">sequestro</span>"," ","","exp-sent","sequestro","","",""
"","1363","html-keyboard-response","508","633286","0.0-3.0-1.423","<span style=""font-size:30px; font-family: monospace"">premeditado.</span>"," ","","comp","premeditado.","","",""
"","20029","html-keyboard-response","509","653568","0.0-3.0-2.423-0.423","<span style=""font-size:30px; font-family: monospace"">Aquele era um caso real de roubo?</span>","n","","comp","","Aquele era um caso real de roubo?","não","false"
"","null","html-keyboard-response","510","655070","0.0-3.0-0.424-0.424","<span style= ""font-size:30px; font-family: monospace"">+</span>","null","fixation","","","","",""
"","326","html-keyboard-response","511","655648","0.0-3.0-1.424","<span style=""font-size:30px; font-family: monospace"">Ursos</span>"," ","","exp-sent","Ursos","","",""
"","406","html-keyboard-response","512","656306","0.0-3.0-1.425","<span style=""font-size:30px; font-family: monospace"">têm</span>"," ","","exp-sent","têm","","",""
"","358","html-keyboard-response","513","656916","0.0-3.0-1.426","<span style=""font-size:30px; font-family: monospace"">uma</span>"," ","","exp-sent","uma","","",""
"","174","html-keyboard-response","514","657343","0.0-3.0-1.427","<span style=""font-size:30px; font-family: monospace"">patada</span>"," ","","exp-sent","patada","","",""
"","314","html-keyboard-response","515","657909","0.0-3.0-1.428","<span style=""font-size:30px; font-family: monospace"">brutal</span>"," ","","exp-sent","brutal","","",""
"","675","html-keyboard-response","516","658837","0.0-3.0-1.429","<span style=""font-size:30px; font-family: monospace"">e</span>"," ","","exp-sent","e","","",""
"","404","html-keyboard-response","517","659493","0.0-3.0-1.430","<span style=""font-size:30px; font-family: monospace"">poderosa.</span>"," ","","exp-sent","poderosa.","","",""
"","null","html-keyboard-response","518","660747","0.0-3.0-0.431-0.431","<span style= ""font-size:30px; font-family: monospace"">+</span>","null","fixation","","","","",""
"","233","html-keyboard-response","519","661232","0.0-3.0-1.431","<span style=""font-size:30px; font-family: monospace"">Eu</span>"," ","","exp-sent","Eu","","",""
"","510","html-keyboard-response","520","661995","0.0-3.0-1.432","<span style=""font-size:30px; font-family: monospace"">fiz</span>"," ","","exp-sent","fiz","","",""
"","449","html-keyboard-response","521","662696","0.0-3.0-1.433","<span style=""font-size:30px; font-family: monospace"">aulas</span>"," ","","exp-sent","aulas","","",""
"","401","html-keyboard-response","522","663350","0.0-3.0-1.434","<span style=""font-size:30px; font-family: monospace"">de</span>"," ","","exp-sent","de","","",""
"","539","html-keyboard-response","523","664142","0.0-3.0-1.435","<span style=""font-size:30px; font-family: monospace"">espanhol</span>"," ","","exp-sent","espanhol","","",""
"","1065","html-keyboard-response","524","665458","0.0-3.0-1.436","<span style=""font-size:30px; font-family: monospace"">nesta</span>"," ","","exp-sent","nesta","","",""
"","427","html-keyboard-response","525","666140","0.0-3.0-1.437","<span style=""font-size:30px; font-family: monospace"">cidade.</span>"," ","","exp-sent","cidade.","","",""
"","null","html-keyboard-response","526","667393","0.0-3.0-0.438-0.438","<span style= ""font-size:30px; font-family: monospace"">+</span>","null","fixation","","","","",""
"","628","html-keyboard-response","527","668275","0.0-3.0-1.438","<span style=""font-size:30px; font-family: monospace"">Ele</span>"," ","","exp-sent","Ele","","",""
"","646","html-keyboard-response","528","669173","0.0-3.0-1.439","<span style=""font-size:30px; font-family: monospace"">comprou</span>"," ","","exp-sent","comprou","","",""
"","520","html-keyboard-response","529","669945","0.0-3.0-1.440","<span style=""font-size:30px; font-family: monospace"">mais</span>"," ","","exp-sent","mais","","",""
"","375","html-keyboard-response","530","670572","0.0-3.0-1.441","<span style=""font-size:30px; font-family: monospace"">uma</span>"," ","","exp-sent","uma","","",""
"","480","html-keyboard-response","531","671305","0.0-3.0-1.442","<span style=""font-size:30px; font-family: monospace"">esponja</span>"," ","","exp-sent","esponja","","",""
"","364","html-keyboard-response","532","671922","0.0-3.0-1.443","<span style=""font-size:30px; font-family: monospace"">para</span>"," ","","exp-sent","para","","",""
"","317","html-keyboard-response","533","672491","0.0-3.0-1.444","<span style=""font-size:30px; font-family: monospace"">a</span>"," ","","exp-sent","a","","",""
"","720","html-keyboard-response","534","673464","0.0-3.0-1.445","<span style=""font-size:30px; font-family: monospace"">cozinha.</span>"," ","","exp-sent","cozinha.","","",""
"","null","html-keyboard-response","535","674718","0.0-3.0-0.446-0.446","<span style= ""font-size:30px; font-family: monospace"">+</span>","null","fixation","","","","",""
"","493","html-keyboard-response","536","675464","0.0-3.0-1.446","<span style=""font-size:30px; font-family: monospace"">Ele</span>"," ","","exp-sent","Ele","","",""
"","1570","html-keyboard-response","537","677287","0.0-3.0-1.447","<span style=""font-size:30px; font-family: monospace"">teve</span>"," ","","exp-sent","teve","","",""
"","400","html-keyboard-response","538","677940","0.0-3.0-1.448","<span style=""font-size:30px; font-family: monospace"">um</span>"," ","","exp-sent","um","","",""
"","333","html-keyboard-response","539","678526","0.0-3.0-1.449","<span style=""font-size:30px; font-family: monospace"">sono</span>"," ","","exp-sent","sono","","",""
"","680","html-keyboard-response","540","679459","0.0-3.0-1.450","<span style=""font-size:30px; font-family: monospace"">bizarro</span>"," ","","exp-sent","bizarro","","",""
"","275","html-keyboard-response","541","679986","0.0-3.0-1.451","<span style=""font-size:30px; font-family: monospace"">sem</span>"," ","","exp-sent","sem","","",""
"","467","html-keyboard-response","542","680705","0.0-3.0-1.452","<span style=""font-size:30px; font-family: monospace"">nenhum</span>"," ","","exp-sent","nenhum","","",""
"","307","html-keyboard-response","543","681264","0.0-3.0-1.453","<span style=""font-size:30px; font-family: monospace"">motivo.</span>"," ","","exp-sent","motivo.","","",""
"","null","html-keyboard-response","544","682517","0.0-3.0-0.454-0.454","<span style= ""font-size:30px; font-family: monospace"">+</span>","null","fixation","","","","",""
"","821","html-keyboard-response","545","683591","0.0-3.0-1.454","<span style=""font-size:30px; font-family: monospace"">A</span>"," ","","exp-sent","A","","",""
"","420","html-keyboard-response","546","684263","0.0-3.0-1.455","<span style=""font-size:30px; font-family: monospace"">moça</span>"," ","","exp-sent","moça","","",""
"","393","html-keyboard-response","547","684909","0.0-3.0-1.456","<span style=""font-size:30px; font-family: monospace"">comprou</span>"," ","","exp-sent","comprou","","",""
"","340","html-keyboard-response","548","685501","0.0-3.0-1.457","<span style=""font-size:30px; font-family: monospace"">um</span>"," ","","exp-sent","um","","",""
"","450","html-keyboard-response","549","686203","0.0-3.0-1.458","<span style=""font-size:30px; font-family: monospace"">diamante</span>"," ","","exp-sent","diamante","","",""
"","514","html-keyboard-response","550","686969","0.0-3.0-1.459","<span style=""font-size:30px; font-family: monospace"">para</span>"," ","","exp-sent","para","","",""
"","1018","html-keyboard-response","551","688240","0.0-3.0-1.460","<span style=""font-size:30px; font-family: monospace"">sua</span>"," ","","exp-sent","sua","","",""
"","424","html-keyboard-response","552","688917","0.0-3.0-1.461","<span style=""font-size:30px; font-family: monospace"">prima.</span>"," ","","comp","prima.","","",""
"","10879","html-keyboard-response","553","700048","0.0-3.0-2.461-0.461","<span style=""font-size:30px; font-family: monospace"">A moça comprou um diamante?</span>","n","","comp","","A moça comprou um diamante?","sim","false"
"","null","html-keyboard-response","554","701560","0.0-3.0-0.462-0.462","<span style= ""font-size:30px; font-family: monospace"">+</span>","null","fixation","","","","",""
"","492","html-keyboard-response","555","702305","0.0-3.0-1.462","<span style=""font-size:30px; font-family: monospace"">O</span>"," ","","exp-sent","O","","",""
"","348","html-keyboard-response","556","702906","0.0-3.0-1.463","<span style=""font-size:30px; font-family: monospace"">texto</span>"," ","","exp-sent","texto","","",""
"","386","html-keyboard-response","557","703544","0.0-3.0-1.464","<span style=""font-size:30px; font-family: monospace"">trazia</span>"," ","","exp-sent","trazia","","",""
"","417","html-keyboard-response","558","704213","0.0-3.0-1.465","<span style=""font-size:30px; font-family: monospace"">um</span>"," ","","exp-sent","um","","",""
"","338","html-keyboard-response","559","704804","0.0-3.0-1.466","<span style=""font-size:30px; font-family: monospace"">argumento</span>"," ","","exp-sent","argumento","","",""
"","304","html-keyboard-response","560","705360","0.0-3.0-1.467","<span style=""font-size:30px; font-family: monospace"">central</span>"," ","","exp-sent","central","","",""
"","362","html-keyboard-response","561","705974","0.0-3.0-1.468","<span style=""font-size:30px; font-family: monospace"">para</span>"," ","","exp-sent","para","","",""
"","399","html-keyboard-response","562","706626","0.0-3.0-1.469","<span style=""font-size:30px; font-family: monospace"">a</span>"," ","","exp-sent","a","","",""
"","427","html-keyboard-response","563","707306","0.0-3.0-1.470","<span style=""font-size:30px; font-family: monospace"">conversa.</span>"," ","","exp-sent","conversa.","","",""
"","null","html-keyboard-response","564","708560","0.0-3.0-0.471-0.471","<span style= ""font-size:30px; font-family: monospace"">+</span>","null","fixation","","","","",""
"","684","html-keyboard-response","565","709497","0.0-3.0-1.471","<span style=""font-size:30px; font-family: monospace"">Ontem</span>"," ","","exp-sent","Ontem","","",""
"","696","html-keyboard-response","566","710446","0.0-3.0-1.472","<span style=""font-size:30px; font-family: monospace"">a</span>"," ","","exp-sent","a","","",""
"","806","html-keyboard-response","567","711505","0.0-3.0-1.473","<span style=""font-size:30px; font-family: monospace"">temperatura</span>"," ","","exp-sent","temperatura","","",""
"","433","html-keyboard-response","568","712191","0.0-3.0-1.474","<span style=""font-size:30px; font-family: monospace"">estava</span>"," ","","exp-sent","estava","","",""
"","395","html-keyboard-response","569","712839","0.0-3.0-1.475","<span style=""font-size:30px; font-family: monospace"">amena</span>"," ","","exp-sent","amena","","",""
"","696","html-keyboard-response","570","713789","0.0-3.0-1.476","<span style=""font-size:30px; font-family: monospace"">durante</span>"," ","","exp-sent","durante","","",""
"","432","html-keyboard-response","571","714473","0.0-3.0-1.477","<span style=""font-size:30px; font-family: monospace"">o</span>"," ","","exp-sent","o","","",""
"","468","html-keyboard-response","572","715193","0.0-3.0-1.478","<span style=""font-size:30px; font-family: monospace"">dia.</span>"," ","","exp-sent","dia.","","",""
"","null","html-keyboard-response","573","716446","0.0-3.0-0.479-0.479","<span style= ""font-size:30px; font-family: monospace"">+</span>","null","fixation","","","","",""
"","685","html-keyboard-response","574","717384","0.0-3.0-1.479","<span style=""font-size:30px; font-family: monospace"">Havia</span>"," ","","exp-sent","Havia","","",""
"","417","html-keyboard-response","575","718054","0.0-3.0-1.480","<span style=""font-size:30px; font-family: monospace"">um</span>"," ","","exp-sent","um","","",""
"","934","html-keyboard-response","576","719240","0.0-3.0-1.481","<span style=""font-size:30px; font-family: monospace"">machucado</span>"," ","","exp-sent","machucado","","",""
"","428","html-keyboard-response","577","719921","0.0-3.0-1.482","<span style=""font-size:30px; font-family: monospace"">no</span>"," ","","exp-sent","no","","",""
"","502","html-keyboard-response","578","720675","0.0-3.0-1.483","<span style=""font-size:30px; font-family: monospace"">dedo</span>"," ","","exp-sent","dedo","","",""
"","421","html-keyboard-response","579","721349","0.0-3.0-1.484","<span style=""font-size:30px; font-family: monospace"">da</span>"," ","","exp-sent","da","","",""
"","1109","html-keyboard-response","580","722710","0.0-3.0-1.485","<span style=""font-size:30px; font-family: monospace"">criança.</span>"," ","","exp-sent","criança.","","",""
"","null","html-keyboard-response","581","723964","0.0-3.0-0.486-0.486","<span style= ""font-size:30px; font-family: monospace"">+</span>","null","fixation","","","","",""
"","1134","html-keyboard-response","582","725350","0.0-3.0-1.486","<span style=""font-size:30px; font-family: monospace"">A</span>"," ","","exp-sent","A","","",""
"","1562","html-keyboard-response","583","727164","0.0-3.0-1.487","<span style=""font-size:30px; font-family: monospace"">borboleta</span>"," ","","exp-sent","borboleta","","",""
"","775","html-keyboard-response","584","728192","0.0-3.0-1.488","<span style=""font-size:30px; font-family: monospace"">pousou</span>"," ","","exp-sent","pousou","","",""
