"view_history","rt","trial_type","trial_index","time_elapsed","internal_node_id","stimulus","response","portuguese","kreyol"
"[{""page_index"":0,""viewing_time"":228695}]","228695","instructions","0","228699","0.0-0.0","","","",""
"","null","html-keyboard-response","1","229304","0.0-1.0-0.0","+","null","",""
"","4960","audio-keyboard-response","2","236983","0.0-1.0-1.0","../audio/teste-vocab--75.mp3","s","carpinteiro","chapantye"
"","null","html-keyboard-response","3","237492","0.0-1.0-0.1","+","null","",""
"","3520","audio-keyboard-response","4","241192","0.0-1.0-1.1","../audio/teste-vocab--98.mp3","s","instruir","enstwi"
"","null","html-keyboard-response","5","241706","0.0-1.0-0.2","+","null","",""
"","1880","audio-keyboard-response","6","243839","0.0-1.0-1.2","../audio/teste-vocab--111.mp3","s","jubilosa","rejwisans"
"","null","html-keyboard-response","7","244350","0.0-1.0-0.3","+","null","",""
"","2581","audio-keyboard-response","8","247151","0.0-1.0-1.3","../audio/teste-vocab--09.mp3","s","vela","bouji"
"","null","html-keyboard-response","9","247666","0.0-1.0-0.4","+","null","",""
"","2571","audio-keyboard-response","10","250443","0.0-1.0-1.4","../audio/teste-vocab--93.mp3","s","felino","leopa"
"","null","html-keyboard-response","11","250960","0.0-1.0-0.5","+","null","",""
"","1520","audio-keyboard-response","12","252681","0.0-1.0-1.5","../audio/teste-vocab--18.mp3","s","abelha","myèl"
"","null","html-keyboard-response","13","253194","0.0-1.0-0.6","+","null","",""
"","2080","audio-keyboard-response","14","255467","0.0-1.0-1.6","../audio/teste-vocab--63.mp3","s","transparente","transparan"
"","null","html-keyboard-response","15","255979","0.0-1.0-0.7","+","null","",""
"","1899","audio-keyboard-response","16","258052","0.0-1.0-1.7","../audio/teste-vocab--78.mp3","s","quarteto","qwatèt"
"","null","html-keyboard-response","17","258561","0.0-1.0-0.8","+","null","",""
"","1832","audio-keyboard-response","18","260642","0.0-1.0-1.8","../audio/teste-vocab--36.mp3","s","grupo","gwoup"
"","null","html-keyboard-response","19","261147","0.0-1.0-0.9","+","null","",""
"","1760","audio-keyboard-response","20","263158","0.0-1.0-1.9","../audio/teste-vocab--52.mp3","s","construção","konstriksyon"
"","null","html-keyboard-response","21","263662","0.0-1.0-0.10","+","null","",""
"","1421","audio-keyboard-response","22","265405","0.0-1.0-1.10","../audio/teste-vocab--28.mp3","s","águia","èg"
"","null","html-keyboard-response","23","265916","0.0-1.0-0.11","+","null","",""
"","1651","audio-keyboard-response","24","267740","0.0-1.0-1.11","../audio/teste-vocab--68.mp3","s","surpreendido","sezi"
"","null","html-keyboard-response","25","268246","0.0-1.0-0.12","+","null","",""
"","1691","audio-keyboard-response","26","270200","0.0-1.0-1.12","../audio/teste-vocab--124.mp3","s","obelisco","obelisk"
"","null","html-keyboard-response","27","270712","0.0-1.0-0.13","+","null","",""
"","1800","audio-keyboard-response","28","272691","0.0-1.0-1.13","../audio/teste-vocab--35.mp3","s","líquido","likid"
"","null","html-keyboard-response","29","273193","0.0-1.0-0.14","+","null","",""
"","1989","audio-keyboard-response","30","275566","0.0-1.0-1.14","../audio/teste-vocab--05.mp3","s","limpar","netwaye"
"","null","html-keyboard-response","31","276075","0.0-1.0-0.15","+","null","",""
"","1840","audio-keyboard-response","32","278092","0.0-1.0-1.15","../audio/teste-vocab--85.mp3","s","trio","trio"
"","null","html-keyboard-response","33","278607","0.0-1.0-0.16","+","null","",""
"","1789","audio-keyboard-response","34","280591","0.0-1.0-1.16","../audio/teste-vocab--92.mp3","s","esférico","won"
"","null","html-keyboard-response","35","281094","0.0-1.0-0.17","+","null","",""
"","1840","audio-keyboard-response","36","283133","0.0-1.0-1.17","../audio/teste-vocab--84.mp3","s","confiar","konfye"
"","null","html-keyboard-response","37","283635","0.0-1.0-0.18","+","null","",""
"","1869","audio-keyboard-response","38","285725","0.0-1.0-1.18","../audio/teste-vocab--57.mp3","s","raiz","rasin"
"","null","html-keyboard-response","39","286232","0.0-1.0-0.19","+","null","",""
"","1989","audio-keyboard-response","40","288548","0.0-1.0-1.19","../audio/teste-vocab--122.mp3","s","transeunte","pasajè"
"","null","html-keyboard-response","41","289051","0.0-1.0-0.20","+","null","",""
"","1640","audio-keyboard-response","42","290986","0.0-1.0-1.20","../audio/teste-vocab--02.mp3","s","homem","gason"
"","null","html-keyboard-response","43","291503","0.0-1.0-0.21","+","null","",""
"","1211","audio-keyboard-response","44","294939","0.0-1.0-1.21","../audio/teste-vocab--59.mp3","s","par","pè"
"","null","html-keyboard-response","45","295450","0.0-1.0-0.22","+","null","",""
"","1611","audio-keyboard-response","46","297509","0.0-1.0-1.22","../audio/teste-vocab--31.mp3","s","vazio","vid"
"","null","html-keyboard-response","47","298026","0.0-1.0-0.23","+","null","",""
"","1589","audio-keyboard-response","48","299770","0.0-1.0-1.23","../audio/teste-vocab--47.mp3","s","envelope","anvlope"
"","null","html-keyboard-response","49","300281","0.0-1.0-0.24","+","null","",""
"","1621","audio-keyboard-response","50","302122","0.0-1.0-1.24","../audio/teste-vocab--61.mp3","s","iluminação","iliminasyon"
"","null","html-keyboard-response","51","302626","0.0-1.0-0.25","+","null","",""
"","1731","audio-keyboard-response","52","304496","0.0-1.0-1.25","../audio/teste-vocab--53.mp3","s","orientar","oryante"
"","null","html-keyboard-response","53","304999","0.0-1.0-0.26","+","null","",""
"","1520","audio-keyboard-response","54","306750","0.0-1.0-1.26","../audio/teste-vocab--70.mp3","s","funil","antónwa"
"","null","html-keyboard-response","55","307258","0.0-1.0-0.27","+","null","",""
"","1891","audio-keyboard-response","56","309316","0.0-1.0-1.27","../audio/teste-vocab--89.mp3","s","classificar","klasifika"
"","null","html-keyboard-response","57","309828","0.0-1.0-0.28","+","null","",""
"","1629","audio-keyboard-response","58","311655","0.0-1.0-1.28","../audio/teste-vocab--82.mp3","s","roer","ronje"
"","null","html-keyboard-response","59","312172","0.0-1.0-0.29","+","null","",""
"","1720","audio-keyboard-response","60","314057","0.0-1.0-1.29","../audio/teste-vocab--21.mp3","s","baleia","balèn"
"","null","html-keyboard-response","61","314562","0.0-1.0-0.30","+","null","",""
"","1840","audio-keyboard-response","62","328876","0.0-1.0-1.30","../audio/teste-vocab--22.mp3","s","quebrado","kraze"
"","null","html-keyboard-response","63","329379","0.0-1.0-0.31","+","null","",""
"","1571","audio-keyboard-response","64","331097","0.0-1.0-1.31","../audio/teste-vocab--107.mp3","s","elo","emay"
"","null","html-keyboard-response","65","331603","0.0-1.0-0.32","+","null","",""
"","1688","audio-keyboard-response","66","333535","0.0-1.0-1.32","../audio/teste-vocab--113.mp3","s","ascender","limen"
"","null","html-keyboard-response","67","334039","0.0-1.0-0.33","+","null","",""
"","1341","audio-keyboard-response","68","335789","0.0-1.0-1.33","../audio/teste-vocab--04.mp3","s","roda","wonn"
"","null","html-keyboard-response","69","336292","0.0-1.0-0.34","+","null","",""
"","1720","audio-keyboard-response","70","338182","0.0-1.0-1.34","../audio/teste-vocab--95.mp3","s","submergir","plonje"
"","null","html-keyboard-response","71","338685","0.0-1.0-0.35","+","null","",""
"","2200","audio-keyboard-response","72","341121","0.0-1.0-1.35","../audio/teste-vocab--128.mp3","s","incisivo","ensisiv"
"","null","html-keyboard-response","73","341636","0.0-1.0-0.36","+","null","",""
"","1320","audio-keyboard-response","74","343398","0.0-1.0-1.36","../audio/teste-vocab--10.mp3","s","corneta","kòn"
"","null","html-keyboard-response","75","343906","0.0-1.0-0.37","+","null","",""
"","1611","audio-keyboard-response","76","345661","0.0-1.0-1.37","../audio/teste-vocab--39.mp3","s","cobra","koulèv"
"","null","html-keyboard-response","77","346164","0.0-1.0-0.38","+","null","",""
"","1520","audio-keyboard-response","78","347844","0.0-1.0-1.38","../audio/teste-vocab--55.mp3","s","bosque","forè"
"","null","html-keyboard-response","79","348356","0.0-1.0-0.39","+","null","",""
"","1941","audio-keyboard-response","80","350471","0.0-1.0-1.39","../audio/teste-vocab--44.mp3","s","premiar","rekonpanse"
"","null","html-keyboard-response","81","350983","0.0-1.0-0.40","+","null","",""
"","1200","audio-keyboard-response","82","352391","0.0-1.0-1.40","../audio/teste-vocab--19.mp3","s","hora","è"
"","null","html-keyboard-response","83","352906","0.0-1.0-0.41","+","null","",""
"","1501","audio-keyboard-response","84","354599","0.0-1.0-1.41","../audio/teste-vocab--83.mp3","s","morsa","mòs"
"","null","html-keyboard-response","85","355113","0.0-1.0-0.42","+","null","",""
"","1960","audio-keyboard-response","86","359783","0.0-1.0-1.42","../audio/teste-vocab--94.mp3","s","paralelo","paralèl"
"","null","html-keyboard-response","87","360289","0.0-1.0-0.43","+","null","",""
"","1749","audio-keyboard-response","88","362288","0.0-1.0-1.43","../audio/teste-vocab--106.mp3","s","lubrificar","grese"
"","null","html-keyboard-response","89","362793","0.0-1.0-0.44","+","null","",""
"","1712","audio-keyboard-response","90","364719","0.0-1.0-1.44","../audio/teste-vocab--120.mp3","s","induzir","pwovoke"
"","null","html-keyboard-response","91","365231","0.0-1.0-0.45","+","null","",""
"","1960","audio-keyboard-response","92","367398","0.0-1.0-1.45","../audio/teste-vocab--123.mp3","s","emissão","emisyon"
"","null","html-keyboard-response","93","367902","0.0-1.0-0.46","+","null","",""
"","2131","audio-keyboard-response","94","370228","0.0-1.0-1.46","../audio/teste-vocab--58.mp3","s","nutritivo","nourisan"
"","null","html-keyboard-response","95","370737","0.0-1.0-0.47","+","null","",""
"","1541","audio-keyboard-response","96","372516","0.0-1.0-1.47","../audio/teste-vocab--12.mp3","s","jaula","kaj"
"","null","html-keyboard-response","97","373025","0.0-1.0-0.48","+","null","",""
"","1299","audio-keyboard-response","98","374571","0.0-1.0-1.48","../audio/teste-vocab--90.mp3","s","carniça","kanivò"
"","null","html-keyboard-response","99","375076","0.0-1.0-0.49","+","null","",""
"","1968","audio-keyboard-response","100","377168","0.0-1.0-1.49","../audio/teste-vocab--72.mp3","s","ilha","zile"
"","null","html-keyboard-response","101","377682","0.0-1.0-0.50","+","null","",""
"","1419","audio-keyboard-response","102","379374","0.0-1.0-1.50","../audio/teste-vocab--48.mp3","s","joia","bijou"
"","null","html-keyboard-response","103","379883","0.0-1.0-0.51","+","null","",""
"","1291","audio-keyboard-response","104","381405","0.0-1.0-1.51","../audio/teste-vocab--115.mp3","s","perpendicular","pèpandikilè"
"","null","html-keyboard-response","105","381912","0.0-1.0-0.52","+","null","",""
"","1691","audio-keyboard-response","106","383724","0.0-1.0-1.52","../audio/teste-vocab--38.mp3","s","cerimônia","seremoni"
"","null","html-keyboard-response","107","384232","0.0-1.0-0.53","+","null","",""
"","1629","audio-keyboard-response","108","386126","0.0-1.0-1.53","../audio/teste-vocab--114.mp3","s","fragmentar","dechire"
"","null","html-keyboard-response","109","386641","0.0-1.0-0.54","+","null","",""
"","1531","audio-keyboard-response","110","388362","0.0-1.0-1.54","../audio/teste-vocab--88.mp3","s","portátil","pòtab"
"","null","html-keyboard-response","111","388877","0.0-1.0-0.55","+","null","",""
"","1541","audio-keyboard-response","112","390587","0.0-1.0-1.55","../audio/teste-vocab--116.mp3","s","vestuário","vestyè"
"","null","html-keyboard-response","113","391098","0.0-1.0-0.56","+","null","",""
"","1792","audio-keyboard-response","114","393235","0.0-1.0-1.56","../audio/teste-vocab--101.mp3","s","incandescente","enkandesan"
"","null","html-keyboard-response","115","393746","0.0-1.0-0.57","+","null","",""
"","1699","audio-keyboard-response","116","395657","0.0-1.0-1.57","../audio/teste-vocab--33.mp3","s","uniforme","inifòm"
"","null","html-keyboard-response","117","396167","0.0-1.0-0.58","+","null","",""
"","1472","audio-keyboard-response","118","397804","0.0-1.0-1.58","../audio/teste-vocab--64.mp3","s","colher","kiyè"
"","null","html-keyboard-response","119","398311","0.0-1.0-0.59","+","null","",""
"","1371","audio-keyboard-response","120","399908","0.0-1.0-1.59","../audio/teste-vocab--15.mp3","s","flecha","flèch"
"","null","html-keyboard-response","121","400423","0.0-1.0-0.60","+","null","",""
"","1371","audio-keyboard-response","122","401999","0.0-1.0-1.60","../audio/teste-vocab--117.mp3","s","córnea","kòn"
"","null","html-keyboard-response","123","402505","0.0-1.0-0.61","+","null","",""
"","1651","audio-keyboard-response","124","404255","0.0-1.0-1.61","../audio/teste-vocab--110.mp3","s","prodígio","pwodij"
"","null","html-keyboard-response","125","404773","0.0-1.0-0.62","+","null","",""
"","2571","audio-keyboard-response","126","407562","0.0-1.0-1.62","../audio/teste-vocab--112.mp3","s","aparição","aparisyon"
"","null","html-keyboard-response","127","408065","0.0-1.0-0.63","+","null","",""
"","1819","audio-keyboard-response","128","410131","0.0-1.0-1.63","../audio/teste-vocab--87.mp3","s","ave","zwazo"
"","null","html-keyboard-response","129","410633","0.0-1.0-0.64","+","null","",""
"","1731","audio-keyboard-response","130","412590","0.0-1.0-1.64","../audio/teste-vocab--79.mp3","s","moldura"," chanbranl"
"","null","html-keyboard-response","131","413102","0.0-1.0-0.65","+","null","",""
"","1691","audio-keyboard-response","132","415032","0.0-1.0-1.65","../audio/teste-vocab--11.mp3","s","joelho","jenou"
"","null","html-keyboard-response","133","415535","0.0-1.0-0.66","+","null","",""
"","1309","audio-keyboard-response","134","417019","0.0-1.0-1.66","../audio/teste-vocab--45.mp3","s","dentista","dantis"
"","null","html-keyboard-response","135","417524","0.0-1.0-0.67","+","null","",""
"","1240","audio-keyboard-response","136","418916","0.0-1.0-1.67","../audio/teste-vocab--06.mp3","s","barco","bato"
"","null","html-keyboard-response","137","419423","0.0-1.0-0.68","+","null","",""
"","1509","audio-keyboard-response","138","421071","0.0-1.0-1.68","../audio/teste-vocab--99.mp3","s","arqueólogo","akeyológ"
"","null","html-keyboard-response","139","421587","0.0-1.0-0.69","+","null","",""
"","1659","audio-keyboard-response","140","425656","0.0-1.0-1.69","../audio/teste-vocab--102.mp3","s","arrogante","arogan"
"","null","html-keyboard-response","141","426173","0.0-1.0-0.70","+","null","",""
"","1571","audio-keyboard-response","142","427939","0.0-1.0-1.70","../audio/teste-vocab--125.mp3","s","lamaçal","labou"
"","null","html-keyboard-response","143","428450","0.0-1.0-0.71","+","null","",""
"","1800","audio-keyboard-response","144","430559","0.0-1.0-1.71","../audio/teste-vocab--100.mp3","s","consumir","konsome"
"","null","html-keyboard-response","145","431063","0.0-1.0-0.72","+","null","",""
"","1360","audio-keyboard-response","146","432649","0.0-1.0-1.72","../audio/teste-vocab--30.mp3","s","pintor","pent"
"","null","html-keyboard-response","147","433165","0.0-1.0-0.73","+","null","",""
"","1731","audio-keyboard-response","148","434995","0.0-1.0-1.73","../audio/teste-vocab--08.mp3","s","vaca","vach"
"","null","html-keyboard-response","149","435512","0.0-1.0-0.74","+","null","",""
"","1560","audio-keyboard-response","150","437273","0.0-1.0-1.74","../audio/teste-vocab--96.mp3","s","árido","sechrès"
"","null","html-keyboard-response","151","437782","0.0-1.0-0.75","+","null","",""
"","1720","audio-keyboard-response","152","439690","0.0-1.0-1.75","../audio/teste-vocab--23.mp3","s","acariciar","karese"
"","null","html-keyboard-response","153","440199","0.0-1.0-0.76","+","null","",""
"","1549","audio-keyboard-response","154","441953","0.0-1.0-1.76","../audio/teste-vocab--69.mp3","s","pingar","degoute"
"","null","html-keyboard-response","155","442466","0.0-1.0-0.77","+","null","",""
"","1600","audio-keyboard-response","156","444278","0.0-1.0-1.77","../audio/teste-vocab--16.mp3","s","pescoço","kou"
"","null","html-keyboard-response","157","444795","0.0-1.0-0.78","+","null","",""
"","1379","audio-keyboard-response","158","446411","0.0-1.0-1.78","../audio/teste-vocab--56.mp3","s","agricultura","agrikilti"
"","null","html-keyboard-response","159","446922","0.0-1.0-0.79","+","null","",""
"","1739","audio-keyboard-response","160","448864","0.0-1.0-1.79","../audio/teste-vocab--127.mp3","s","côncavo","konkav"
"","null","html-keyboard-response","161","449370","0.0-1.0-0.80","+","null","",""
"","1709","audio-keyboard-response","162","451269","0.0-1.0-1.80","../audio/teste-vocab--17.mp3","s","móvel","mobil"
"","null","html-keyboard-response","163","451775","0.0-1.0-0.81","+","null","",""
"","2309","audio-keyboard-response","164","454309","0.0-1.0-1.81","../audio/teste-vocab--103.mp3","s","utensílio","istansil"
"","null","html-keyboard-response","165","454821","0.0-1.0-0.82","+","null","",""
"","2179","audio-keyboard-response","166","457212","0.0-1.0-1.82","../audio/teste-vocab--37.mp3","s","músico","mizisyen"
"","null","html-keyboard-response","167","457724","0.0-1.0-0.83","+","null","",""
"","1381","audio-keyboard-response","168","459280","0.0-1.0-1.83","../audio/teste-vocab--73.mp3","s","ângulo","ang"
"","null","html-keyboard-response","169","459791","0.0-1.0-0.84","+","null","",""
"","1611","audio-keyboard-response","170","461719","0.0-1.0-1.84","../audio/teste-vocab--67.mp3","s","corrimão","ranp"
"","null","html-keyboard-response","171","462230","0.0-1.0-0.85","+","null","",""
"","3189","audio-keyboard-response","172","482549","0.0-1.0-1.85","../audio/teste-vocab--91.mp3","s","bússola","bousòl"
"","null","html-keyboard-response","173","483057","0.0-1.0-0.86","+","null","",""
"","1520","audio-keyboard-response","174","484781","0.0-1.0-1.86","../audio/teste-vocab--49.mp3","s","humano","moun"
"","null","html-keyboard-response","175","485295","0.0-1.0-0.87","+","null","",""
"","1520","audio-keyboard-response","176","489125","0.0-1.0-1.87","../audio/teste-vocab--62.mp3","s","carretel","bobin"
"","null","html-keyboard-response","177","489636","0.0-1.0-0.88","+","null","",""
"","1221","audio-keyboard-response","178","491038","0.0-1.0-1.88","../audio/teste-vocab--108.mp3","s","moradia","kay"
"","null","html-keyboard-response","179","491553","0.0-1.0-0.89","+","null","",""
"","1520","audio-keyboard-response","180","493182","0.0-1.0-1.89","../audio/teste-vocab--105.mp3","s","cítrico","sitrik"
"","null","html-keyboard-response","181","493692","0.0-1.0-0.90","+","null","",""
"","1589","audio-keyboard-response","182","495505","0.0-1.0-1.90","../audio/teste-vocab--50.mp3","s","artista","atis"
"","null","html-keyboard-response","183","496017","0.0-1.0-0.91","+","null","",""
"","2331","audio-keyboard-response","184","498923","0.0-1.0-1.91","../audio/teste-vocab--66.mp3","s","cooperação","koperasyon"
"","null","html-keyboard-response","185","499425","0.0-1.0-0.92","+","null","",""
"","1480","audio-keyboard-response","186","501241","0.0-1.0-1.92","../audio/teste-vocab--130.mp3","s","gentil","dou"
"","null","html-keyboard-response","187","501751","0.0-1.0-0.93","+","null","",""
"","1499","audio-keyboard-response","188","503605","0.0-1.0-1.93","../audio/teste-vocab--126.mp3","s","ambulante","promennen"
"","null","html-keyboard-response","189","504108","0.0-1.0-0.94","+","null","",""
"","1520","audio-keyboard-response","190","505881","0.0-1.0-1.94","../audio/teste-vocab--76.mp3","s","arquivar","achive"
"","null","html-keyboard-response","191","506395","0.0-1.0-0.95","+","null","",""
"","1320","audio-keyboard-response","192","507970","0.0-1.0-1.95","../audio/teste-vocab--13.mp3","s","ambulância","anbilans"
"","null","html-keyboard-response","193","508473","0.0-1.0-0.96","+","null","",""
"","1691","audio-keyboard-response","194","510314","0.0-1.0-1.96","../audio/teste-vocab--51.mp3","s","recolher","kolekte"
"","null","html-keyboard-response","195","510821","0.0-1.0-0.97","+","null","",""
"","1589","audio-keyboard-response","196","512591","0.0-1.0-1.97","../audio/teste-vocab--46.mp3","s","ombro","zepòl"
"","null","html-keyboard-response","197","513107","0.0-1.0-0.98","+","null","",""
"","1581","audio-keyboard-response","198","514952","0.0-1.0-1.98","../audio/teste-vocab--121.mp3","s","atônito","sezi"
"","null","html-keyboard-response","199","515466","0.0-1.0-0.99","+","null","",""
"","1720","audio-keyboard-response","200","517610","0.0-1.0-1.99","../audio/teste-vocab--40.mp3","s","bebida","bwason"
"","null","html-keyboard-response","201","518113","0.0-1.0-0.100","+","null","",""
"","1691","audio-keyboard-response","202","519960","0.0-1.0-1.100","../audio/teste-vocab--104.mp3","s","ira","pwal"
"","null","html-keyboard-response","203","520469","0.0-1.0-0.101","+","null","",""
"","1469","audio-keyboard-response","204","522141","0.0-1.0-1.101","../audio/teste-vocab--80.mp3","s","binóculo","longvi"
"","null","html-keyboard-response","205","522645","0.0-1.0-0.102","+","null","",""
"","2789","audio-keyboard-response","206","525896","0.0-1.0-1.102","../audio/teste-vocab--109.mp3","s","anfíbio","anfibyen"
"","null","html-keyboard-response","207","526406","0.0-1.0-0.103","+","null","",""
"","1808","audio-keyboard-response","208","528414","0.0-1.0-1.103","../audio/teste-vocab--60.mp3","s","secretaria","sekretè"
"","null","html-keyboard-response","209","528929","0.0-1.0-0.104","+","null","",""
"","1360","audio-keyboard-response","210","530439","0.0-1.0-1.104","../audio/teste-vocab--34.mp3","s","tronco","twon"
"","null","html-keyboard-response","211","530946","0.0-1.0-0.105","+","null","",""
"","1680","audio-keyboard-response","212","532791","0.0-1.0-1.105","../audio/teste-vocab--119.mp3","s","numeroso","anpil"
"","null","html-keyboard-response","213","533306","0.0-1.0-0.106","+","null","",""
"","1451","audio-keyboard-response","214","534913","0.0-1.0-1.106","../audio/teste-vocab--86.mp3","s","pensar","panse"
"","null","html-keyboard-response","215","535430","0.0-1.0-0.107","+","null","",""
"","1560","audio-keyboard-response","216","537148","0.0-1.0-1.107","../audio/teste-vocab--29.mp3","s","rasgar","chire"
"","null","html-keyboard-response","217","537656","0.0-1.0-0.108","+","null","",""
"","1280","audio-keyboard-response","218","539146","0.0-1.0-1.108","../audio/teste-vocab--77.mp3","s","comércio","komès"
"","null","html-keyboard-response","219","539660","0.0-1.0-0.109","+","null","",""
"","1429","audio-keyboard-response","220","541412","0.0-1.0-1.109","../audio/teste-vocab--03.mp3","s","balançar","balanse"
"","null","html-keyboard-response","221","541928","0.0-1.0-0.110","+","null","",""
"","2331","audio-keyboard-response","222","544510","0.0-1.0-1.110","../audio/teste-vocab--81.mp3","s","judicial","jidisyè"
"","null","html-keyboard-response","223","545026","0.0-1.0-0.111","+","null","",""
"","1789","audio-keyboard-response","224","547146","0.0-1.0-1.111","../audio/teste-vocab--24.mp3","s","acidente","aksidan"
"","null","html-keyboard-response","225","547662","0.0-1.0-0.112","+","null","",""
"","1400","audio-keyboard-response","226","551246","0.0-1.0-1.112","../audio/teste-vocab--07.mp3","s","abajur","lanp"
"","null","html-keyboard-response","227","551760","0.0-1.0-0.113","+","null","",""
"","1589","audio-keyboard-response","228","553566","0.0-1.0-1.113","../audio/teste-vocab--41.mp3","s","médico","doktè,"
"","null","html-keyboard-response","229","554082","0.0-1.0-0.114","+","null","",""
"","1520","audio-keyboard-response","230","555812","0.0-1.0-1.114","../audio/teste-vocab--14.mp3","s","ler","li"
"","null","html-keyboard-response","231","556327","0.0-1.0-0.115","+","null","",""
"","1491","audio-keyboard-response","232","558103","0.0-1.0-1.115","../audio/teste-vocab--129.mp3","s","elipse","elips"
"","null","html-keyboard-response","233","558607","0.0-1.0-0.116","+","null","",""
"","1800","audio-keyboard-response","234","560640","0.0-1.0-1.116","../audio/teste-vocab--20.mp3","s","medir","mezire"
"","null","html-keyboard-response","235","561154","0.0-1.0-0.117","+","null","",""
"","2411","audio-keyboard-response","236","563842","0.0-1.0-1.117","../audio/teste-vocab--65.mp3","s","discussão","diskisyon"
"","null","html-keyboard-response","237","564344","0.0-1.0-0.118","+","null","",""
"","1699","audio-keyboard-response","238","566368","0.0-1.0-1.118","../audio/teste-vocab--54.mp3","s","arbusto","raje"
"","null","html-keyboard-response","239","566881","0.0-1.0-0.119","+","null","",""
"","1469","audio-keyboard-response","240","568510","0.0-1.0-1.119","../audio/teste-vocab--71.mp3","s","caule","tij"
"","null","html-keyboard-response","241","569020","0.0-1.0-0.120","+","null","",""
"","1739","audio-keyboard-response","242","570969","0.0-1.0-1.120","../audio/teste-vocab--27.mp3","s","rio","rivyè"
"","null","html-keyboard-response","243","571477","0.0-1.0-0.121","+","null","",""
"","2421","audio-keyboard-response","244","574117","0.0-1.0-1.121","../audio/teste-vocab--74.mp3","s","desilusão","dezilizyon"
"","null","html-keyboard-response","245","574619","0.0-1.0-0.122","+","null","",""
"","1541","audio-keyboard-response","246","576352","0.0-1.0-1.122","../audio/teste-vocab--01.mp3","s","boneca","pope"
"","null","html-keyboard-response","247","576856","0.0-1.0-0.123","+","null","",""
"","2120","audio-keyboard-response","248","579177","0.0-1.0-1.123","../audio/teste-vocab--43.mp3","s","mecânico","mekanisyen"
"","null","html-keyboard-response","249","579694","0.0-1.0-0.124","+","null","",""
"","1621","audio-keyboard-response","250","581522","0.0-1.0-1.124","../audio/teste-vocab--97.mp3","s","frágil","frajil"
"","null","html-keyboard-response","251","582026","0.0-1.0-0.125","+","null","",""
"","1709","audio-keyboard-response","252","583946","0.0-1.0-1.125","../audio/teste-vocab--32.mp3","s","descascar","dekale"
"","null","html-keyboard-response","253","584460","0.0-1.0-0.126","+","null","",""
"","1451","audio-keyboard-response","254","586066","0.0-1.0-1.126","../audio/teste-vocab--26.mp3","s","cotovelo","koud"
"","null","html-keyboard-response","255","586578","0.0-1.0-0.127","+","null","",""
"","2440","audio-keyboard-response","256","589462","0.0-1.0-1.127","../audio/teste-vocab--118.mp3","s","paralelogramo","paralelogram"
"","null","html-keyboard-response","257","589974","0.0-1.0-0.128","+","null","",""
"","1920","audio-keyboard-response","258","592093","0.0-1.0-1.128","../audio/teste-vocab--25.mp3","s","canguru","kanguwou"
"","null","html-keyboard-response","259","592606","0.0-1.0-0.129","+","null","",""
"","1488","audio-keyboard-response","260","594289","0.0-1.0-1.129","../audio/teste-vocab--42.mp3","s","isolamento","izòlman"
