[
	{
		"view_history": [
			{
				"page_index": 0,
				"viewing_time": 44010
			},
			{
				"page_index": 1,
				"viewing_time": 75590
			}
		],
		"rt": 119601,
		"trial_type": "instructions",
		"trial_index": 0,
		"time_elapsed": 119608,
		"internal_node_id": "0.0-0.0"
	},
	{
		"rt": null,
		"stimulus": "<span style= \"font-size:30px; font-family: monospace\">+</span>",
		"response": null,
		"trial_part": "fixation",
		"trial_type": "html-keyboard-response",
		"trial_index": 1,
		"time_elapsed": 120712,
		"internal_node_id": "0.0-1.0-0.0-0.0"
	},
	{
		"rt": 1191,
		"stimulus": "<span style=\"font-size:30px; font-family: monospace\">O</span>",
		"response": " ",
		"trial": "prac-sent",
		"word": "O",
		"trial_type": "html-keyboard-response",
		"trial_index": 2,
		"time_elapsed": 122154,
		"internal_node_id": "0.0-1.0-1.0"
	},
	{
		"rt": 757,
		"stimulus": "<span style=\"font-size:30px; font-family: monospace\">dia</span>",
		"response": " ",
		"trial": "prac-sent",
		"word": "dia",
		"trial_type": "html-keyboard-response",
		"trial_index": 3,
		"time_elapsed": 123166,
		"internal_node_id": "0.0-1.0-1.1"
	},
	{
		"rt": 912,
		"stimulus": "<span style=\"font-size:30px; font-family: monospace\">estará</span>",
		"response": " ",
		"trial": "prac-sent",
		"word": "estará",
		"trial_type": "html-keyboard-response",
		"trial_index": 4,
		"time_elapsed": 124330,
		"internal_node_id": "0.0-1.0-1.2"
	},
	{
		"rt": 790,
		"stimulus": "<span style=\"font-size:30px; font-family: monospace\">cheio</span>",
		"response": " ",
		"trial": "prac-sent",
		"word": "cheio",
		"trial_type": "html-keyboard-response",
		"trial_index": 5,
		"time_elapsed": 125371,
		"internal_node_id": "0.0-1.0-1.3"
	},
	{
		"rt": 608,
		"stimulus": "<span style=\"font-size:30px; font-family: monospace\">de</span>",
		"response": " ",
		"trial": "prac-sent",
		"word": "de",
		"trial_type": "html-keyboard-response",
		"trial_index": 6,
		"time_elapsed": 126230,
		"internal_node_id": "0.0-1.0-1.4"
	},
	{
		"rt": 573,
		"stimulus": "<span style=\"font-size:30px; font-family: monospace\">nuvens</span>",
		"response": " ",
		"trial": "prac-sent",
		"word": "nuvens",
		"trial_type": "html-keyboard-response",
		"trial_index": 7,
		"time_elapsed": 127055,
		"internal_node_id": "0.0-1.0-1.5"
	},
	{
		"rt": 1070,
		"stimulus": "<span style=\"font-size:30px; font-family: monospace\">hoje.</span>",
		"response": " ",
		"trial": "prac-sent",
		"word": "hoje.",
		"trial_type": "html-keyboard-response",
		"trial_index": 8,
		"time_elapsed": 128377,
		"internal_node_id": "0.0-1.0-1.6"
	},
	{
		"rt": null,
		"stimulus": "<span style= \"font-size:30px; font-family: monospace\">+</span>",
		"response": null,
		"trial_part": "fixation",
		"trial_type": "html-keyboard-response",
		"trial_index": 9,
		"time_elapsed": 129629,
		"internal_node_id": "0.0-1.0-0.7-0.7"
	},
	{
		"rt": 803,
		"stimulus": "<span style=\"font-size:30px; font-family: monospace\">A</span>",
		"response": " ",
		"trial": "prac-sent",
		"word": "A",
		"trial_type": "html-keyboard-response",
		"trial_index": 10,
		"time_elapsed": 130684,
		"internal_node_id": "0.0-1.0-1.7"
	},
	{
		"rt": 1069,
		"stimulus": "<span style=\"font-size:30px; font-family: monospace\">caneca</span>",
		"response": " ",
		"trial": "prac-sent",
		"word": "caneca",
		"trial_type": "html-keyboard-response",
		"trial_index": 11,
		"time_elapsed": 132003,
		"internal_node_id": "0.0-1.0-1.8"
	},
	{
		"rt": 911,
		"stimulus": "<span style=\"font-size:30px; font-family: monospace\">colorida</span>",
		"response": " ",
		"trial": "prac-sent",
		"word": "colorida",
		"trial_type": "html-keyboard-response",
		"trial_index": 12,
		"time_elapsed": 133165,
		"internal_node_id": "0.0-1.0-1.9"
	},
	{
		"rt": 587,
		"stimulus": "<span style=\"font-size:30px; font-family: monospace\">caiu</span>",
		"response": " ",
		"trial": "prac-sent",
		"word": "caiu",
		"trial_type": "html-keyboard-response",
		"trial_index": 13,
		"time_elapsed": 134003,
		"internal_node_id": "0.0-1.0-1.10"
	},
	{
		"rt": 457,
		"stimulus": "<span style=\"font-size:30px; font-family: monospace\">da</span>",
		"response": " ",
		"trial": "prac-sent",
		"word": "da",
		"trial_type": "html-keyboard-response",
		"trial_index": 14,
		"time_elapsed": 134718,
		"internal_node_id": "0.0-1.0-1.11"
	},
	{
		"rt": 433,
		"stimulus": "<span style=\"font-size:30px; font-family: monospace\">mesa</span>",
		"response": " ",
		"trial": "prac-sent",
		"word": "mesa",
		"trial_type": "html-keyboard-response",
		"trial_index": 15,
		"time_elapsed": 135401,
		"internal_node_id": "0.0-1.0-1.12"
	},
	{
		"rt": 682,
		"stimulus": "<span style=\"font-size:30px; font-family: monospace\">de</span>",
		"response": " ",
		"trial": "prac-sent",
		"word": "de",
		"trial_type": "html-keyboard-response",
		"trial_index": 16,
		"time_elapsed": 136335,
		"internal_node_id": "0.0-1.0-1.13"
	},
	{
		"rt": 973,
		"stimulus": "<span style=\"font-size:30px; font-family: monospace\">jantar.</span>",
		"response": " ",
		"trial": "prac-comp",
		"word": "jantar.",
		"trial_type": "html-keyboard-response",
		"trial_index": 17,
		"time_elapsed": 137559,
		"internal_node_id": "0.0-1.0-1.14"
	},
	{
		"rt": 25702,
		"stimulus": "<span style=\"font-size:30px; font-family: monospace\">A caneca permaneceu na mesa?</span>",
		"response": "n",
		"question": "A caneca permaneceu na mesa?",
		"answer": "não",
		"trial": "prac-comp",
		"trial_type": "html-keyboard-response",
		"trial_index": 18,
		"time_elapsed": 163512,
		"internal_node_id": "0.0-1.0-2.14-0.14",
		"accuracy": false
	},
	{
		"view_history": [
			{
				"page_index": 0,
				"viewing_time": 53273
			}
		],
		"rt": 53273,
		"trial_type": "instructions",
		"trial_index": 19,
		"time_elapsed": 217286,
		"internal_node_id": "0.0-2.0"
	},
	{
		"rt": null,
		"stimulus": "<span style= \"font-size:30px; font-family: monospace\">+</span>",
		"response": null,
		"trial_part": "fixation",
		"trial_type": "html-keyboard-response",
		"trial_index": 20,
		"time_elapsed": 218388,
		"internal_node_id": "0.0-3.0-0.0-0.0"
	},
	{
		"rt": 138,
		"stimulus": "<span style=\"font-size:30px; font-family: monospace\">Ursos</span>",
		"response": " ",
		"trial": "exp-sent",
		"word": "Ursos",
		"trial_type": "html-keyboard-response",
		"trial_index": 21,
		"time_elapsed": 218777,
		"internal_node_id": "0.0-3.0-1.0"
	},
	{
		"rt": 628,
		"stimulus": "<span style=\"font-size:30px; font-family: monospace\">têm</span>",
		"response": " ",
		"trial": "exp-sent",
		"word": "têm",
		"trial_type": "html-keyboard-response",
		"trial_index": 22,
		"time_elapsed": 219656,
		"internal_node_id": "0.0-3.0-1.1"
	},
	{
		"rt": 579,
		"stimulus": "<span style=\"font-size:30px; font-family: monospace\">uma</span>",
		"response": " ",
		"trial": "exp-sent",
		"word": "uma",
		"trial_type": "html-keyboard-response",
		"trial_index": 23,
		"time_elapsed": 220486,
		"internal_node_id": "0.0-3.0-1.2"
	},
	{
		"rt": 527,
		"stimulus": "<span style=\"font-size:30px; font-family: monospace\">patada</span>",
		"response": " ",
		"trial": "exp-sent",
		"word": "patada",
		"trial_type": "html-keyboard-response",
		"trial_index": 24,
		"time_elapsed": 221265,
		"internal_node_id": "0.0-3.0-1.3"
	},
	{
		"rt": 607,
		"stimulus": "<span style=\"font-size:30px; font-family: monospace\">brutal</span>",
		"response": " ",
		"trial": "exp-sent",
		"word": "brutal",
		"trial_type": "html-keyboard-response",
		"trial_index": 25,
		"time_elapsed": 222123,
		"internal_node_id": "0.0-3.0-1.4"
	},
	{
		"rt": 535,
		"stimulus": "<span style=\"font-size:30px; font-family: monospace\">e</span>",
		"response": " ",
		"trial": "exp-sent",
		"word": "e",
		"trial_type": "html-keyboard-response",
		"trial_index": 26,
		"time_elapsed": 222910,
		"internal_node_id": "0.0-3.0-1.5"
	},
	{
		"rt": 940,
		"stimulus": "<span style=\"font-size:30px; font-family: monospace\">poderosa.</span>",
		"response": " ",
		"trial": "exp-sent",
		"word": "poderosa.",
		"trial_type": "html-keyboard-response",
		"trial_index": 27,
		"time_elapsed": 224106,
		"internal_node_id": "0.0-3.0-1.6"
	},
	{
		"rt": null,
		"stimulus": "<span style= \"font-size:30px; font-family: monospace\">+</span>",
		"response": null,
		"trial_part": "fixation",
		"trial_type": "html-keyboard-response",
		"trial_index": 28,
		"time_elapsed": 225358,
		"internal_node_id": "0.0-3.0-0.7-0.7"
	},
	{
		"rt": 685,
		"stimulus": "<span style=\"font-size:30px; font-family: monospace\">Eu</span>",
		"response": " ",
		"trial": "exp-sent",
		"word": "Eu",
		"trial_type": "html-keyboard-response",
		"trial_index": 29,
		"time_elapsed": 226294,
		"internal_node_id": "0.0-3.0-1.7"
	},
	{
		"rt": 408,
		"stimulus": "<span style=\"font-size:30px; font-family: monospace\">fiz</span>",
		"response": " ",
		"trial": "exp-sent",
		"word": "fiz",
		"trial_type": "html-keyboard-response",
		"trial_index": 30,
		"time_elapsed": 226953,
		"internal_node_id": "0.0-3.0-1.8"
	},
	{
		"rt": 367,
		"stimulus": "<span style=\"font-size:30px; font-family: monospace\">aulas</span>",
		"response": " ",
		"trial": "exp-sent",
		"word": "aulas",
		"trial_type": "html-keyboard-response",
		"trial_index": 31,
		"time_elapsed": 227571,
		"internal_node_id": "0.0-3.0-1.9"
	},
	{
		"rt": 387,
		"stimulus": "<span style=\"font-size:30px; font-family: monospace\">de</span>",
		"response": " ",
		"trial": "exp-sent",
		"word": "de",
		"trial_type": "html-keyboard-response",
		"trial_index": 32,
		"time_elapsed": 228209,
		"internal_node_id": "0.0-3.0-1.10"
	},
	{
		"rt": 944,
		"stimulus": "<span style=\"font-size:30px; font-family: monospace\">espanhol</span>",
		"response": " ",
		"trial": "exp-sent",
		"word": "espanhol",
		"trial_type": "html-keyboard-response",
		"trial_index": 33,
		"time_elapsed": 229404,
		"internal_node_id": "0.0-3.0-1.11"
	},
	{
		"rt": 535,
		"stimulus": "<span style=\"font-size:30px; font-family: monospace\">nesta</span>",
		"response": " ",
		"trial": "exp-sent",
		"word": "nesta",
		"trial_type": "html-keyboard-response",
		"trial_index": 34,
		"time_elapsed": 230190,
		"internal_node_id": "0.0-3.0-1.12"
	},
	{
		"rt": 628,
		"stimulus": "<span style=\"font-size:30px; font-family: monospace\">cidade.</span>",
		"response": " ",
		"trial": "exp-sent",
		"word": "cidade.",
		"trial_type": "html-keyboard-response",
		"trial_index": 35,
		"time_elapsed": 231069,
		"internal_node_id": "0.0-3.0-1.13"
	},
	{
		"rt": null,
		"stimulus": "<span style= \"font-size:30px; font-family: monospace\">+</span>",
		"response": null,
		"trial_part": "fixation",
		"trial_type": "html-keyboard-response",
		"trial_index": 36,
		"time_elapsed": 232321,
		"internal_node_id": "0.0-3.0-0.14-0.14"
	},
	{
		"rt": 607,
		"stimulus": "<span style=\"font-size:30px; font-family: monospace\">Ele</span>",
		"response": " ",
		"trial": "exp-sent",
		"word": "Ele",
		"trial_type": "html-keyboard-response",
		"trial_index": 37,
		"time_elapsed": 233179,
		"internal_node_id": "0.0-3.0-1.14"
	},
	{
		"rt": 932,
		"stimulus": "<span style=\"font-size:30px; font-family: monospace\">comprou</span>",
		"response": " ",
		"trial": "exp-sent",
		"word": "comprou",
		"trial_type": "html-keyboard-response",
		"trial_index": 38,
		"time_elapsed": 234362,
		"internal_node_id": "0.0-3.0-1.15"
	},
	{
		"rt": 767,
		"stimulus": "<span style=\"font-size:30px; font-family: monospace\">mais</span>",
		"response": " ",
		"trial": "exp-sent",
		"word": "mais",
		"trial_type": "html-keyboard-response",
		"trial_index": 39,
		"time_elapsed": 235380,
		"internal_node_id": "0.0-3.0-1.16"
	},
	{
		"rt": 592,
		"stimulus": "<span style=\"font-size:30px; font-family: monospace\">uma</span>",
		"response": " ",
		"trial": "exp-sent",
		"word": "uma",
		"trial_type": "html-keyboard-response",
		"trial_index": 40,
		"time_elapsed": 236224,
		"internal_node_id": "0.0-3.0-1.17"
	},
	{
		"rt": 1263,
		"stimulus": "<span style=\"font-size:30px; font-family: monospace\">esponja</span>",
		"response": " ",
		"trial": "exp-sent",
		"word": "esponja",
		"trial_type": "html-keyboard-response",
		"trial_index": 41,
		"time_elapsed": 237738,
		"internal_node_id": "0.0-3.0-1.18"
	},
	{
		"rt": 531,
		"stimulus": "<span style=\"font-size:30px; font-family: monospace\">para</span>",
		"response": " ",
		"trial": "exp-sent",
		"word": "para",
		"trial_type": "html-keyboard-response",
		"trial_index": 42,
		"time_elapsed": 238522,
		"internal_node_id": "0.0-3.0-1.19"
	},
	{
		"rt": 514,
		"stimulus": "<span style=\"font-size:30px; font-family: monospace\">a</span>",
		"response": " ",
		"trial": "exp-sent",
		"word": "a",
		"trial_type": "html-keyboard-response",
		"trial_index": 43,
		"time_elapsed": 239287,
		"internal_node_id": "0.0-3.0-1.20"
	},
	{
		"rt": 651,
		"stimulus": "<span style=\"font-size:30px; font-family: monospace\">cozinha.</span>",
		"response": " ",
		"trial": "exp-sent",
		"word": "cozinha.",
		"trial_type": "html-keyboard-response",
		"trial_index": 44,
		"time_elapsed": 240194,
		"internal_node_id": "0.0-3.0-1.21"
	},
	{
		"rt": null,
		"stimulus": "<span style= \"font-size:30px; font-family: monospace\">+</span>",
		"response": null,
		"trial_part": "fixation",
		"trial_type": "html-keyboard-response",
		"trial_index": 45,
		"time_elapsed": 241446,
		"internal_node_id": "0.0-3.0-0.22-0.22"
	},
	{
		"rt": 482,
		"stimulus": "<span style=\"font-size:30px; font-family: monospace\">Ele</span>",
		"response": " ",
		"trial": "exp-sent",
		"word": "Ele",
		"trial_type": "html-keyboard-response",
		"trial_index": 46,
		"time_elapsed": 242203,
		"internal_node_id": "0.0-3.0-1.22"
	},
	{
		"rt": 374,
		"stimulus": "<span style=\"font-size:30px; font-family: monospace\">teve</span>",
		"response": " ",
		"trial": "exp-sent",
		"word": "teve",
		"trial_type": "html-keyboard-response",
		"trial_index": 47,
		"time_elapsed": 242827,
		"internal_node_id": "0.0-3.0-1.23"
	},
	{
		"rt": 456,
		"stimulus": "<span style=\"font-size:30px; font-family: monospace\">um</span>",
		"response": " ",
		"trial": "exp-sent",
		"word": "um",
		"trial_type": "html-keyboard-response",
		"trial_index": 48,
		"time_elapsed": 243539,
		"internal_node_id": "0.0-3.0-1.24"
	},
	{
		"rt": 329,
		"stimulus": "<span style=\"font-size:30px; font-family: monospace\">sono</span>",
		"response": " ",
		"trial": "exp-sent",
		"word": "sono",
		"trial_type": "html-keyboard-response",
		"trial_index": 49,
		"time_elapsed": 244120,
		"internal_node_id": "0.0-3.0-1.25"
	},
	{
		"rt": 875,
		"stimulus": "<span style=\"font-size:30px; font-family: monospace\">bizarro</span>",
		"response": " ",
		"trial": "exp-sent",
		"word": "bizarro",
		"trial_type": "html-keyboard-response",
		"trial_index": 50,
		"time_elapsed": 245246,
		"internal_node_id": "0.0-3.0-1.26"
	},
	{
		"rt": 387,
		"stimulus": "<span style=\"font-size:30px; font-family: monospace\">sem</span>",
		"response": " ",
		"trial": "exp-sent",
		"word": "sem",
		"trial_type": "html-keyboard-response",
		"trial_index": 51,
		"time_elapsed": 245884,
		"internal_node_id": "0.0-3.0-1.27"
	},
	{
		"rt": 472,
		"stimulus": "<span style=\"font-size:30px; font-family: monospace\">nenhum</span>",
		"response": " ",
		"trial": "exp-sent",
		"word": "nenhum",
		"trial_type": "html-keyboard-response",
		"trial_index": 52,
		"time_elapsed": 246607,
		"internal_node_id": "0.0-3.0-1.28"
	},
	{
		"rt": 422,
		"stimulus": "<span style=\"font-size:30px; font-family: monospace\">motivo.</span>",
		"response": " ",
		"trial": "exp-sent",
		"word": "motivo.",
		"trial_type": "html-keyboard-response",
		"trial_index": 53,
		"time_elapsed": 247283,
		"internal_node_id": "0.0-3.0-1.29"
	},
	{
		"rt": null,
		"stimulus": "<span style= \"font-size:30px; font-family: monospace\">+</span>",
		"response": null,
		"trial_part": "fixation",
		"trial_type": "html-keyboard-response",
		"trial_index": 54,
		"time_elapsed": 248537,
		"internal_node_id": "0.0-3.0-0.30-0.30"
	},
	{
		"rt": 1367,
		"stimulus": "<span style=\"font-size:30px; font-family: monospace\">A</span>",
		"response": " ",
		"trial": "exp-sent",
		"word": "A",
		"trial_type": "html-keyboard-response",
		"trial_index": 55,
		"time_elapsed": 250155,
		"internal_node_id": "0.0-3.0-1.30"
	},
	{
		"rt": 562,
		"stimulus": "<span style=\"font-size:30px; font-family: monospace\">moça</span>",
		"response": " ",
		"trial": "exp-sent",
		"word": "moça",
		"trial_type": "html-keyboard-response",
		"trial_index": 56,
		"time_elapsed": 250968,
		"internal_node_id": "0.0-3.0-1.31"
	},
	{
		"rt": 360,
		"stimulus": "<span style=\"font-size:30px; font-family: monospace\">comprou</span>",
		"response": " ",
		"trial": "exp-sent",
		"word": "comprou",
		"trial_type": "html-keyboard-response",
		"trial_index": 57,
		"time_elapsed": 251580,
		"internal_node_id": "0.0-3.0-1.32"
	},
	{
		"rt": 296,
		"stimulus": "<span style=\"font-size:30px; font-family: monospace\">um</span>",
		"response": " ",
		"trial": "exp-sent",
		"word": "um",
		"trial_type": "html-keyboard-response",
		"trial_index": 58,
		"time_elapsed": 252126,
		"internal_node_id": "0.0-3.0-1.33"
	},
	{
		"rt": 746,
		"stimulus": "<span style=\"font-size:30px; font-family: monospace\">diamante</span>",
		"response": " ",
		"trial": "exp-sent",
		"word": "diamante",
		"trial_type": "html-keyboard-response",
		"trial_index": 59,
		"time_elapsed": 253123,
		"internal_node_id": "0.0-3.0-1.34"
	},
	{
		"rt": 397,
		"stimulus": "<span style=\"font-size:30px; font-family: monospace\">para</span>",
		"response": " ",
		"trial": "exp-sent",
		"word": "para",
		"trial_type": "html-keyboard-response",
		"trial_index": 60,
		"time_elapsed": 253771,
		"internal_node_id": "0.0-3.0-1.35"
	},
	{
		"rt": 356,
		"stimulus": "<span style=\"font-size:30px; font-family: monospace\">sua</span>",
		"response": " ",
		"trial": "exp-sent",
		"word": "sua",
		"trial_type": "html-keyboard-response",
		"trial_index": 61,
		"time_elapsed": 254379,
		"internal_node_id": "0.0-3.0-1.36"
	},
	{
		"rt": 409,
		"stimulus": "<span style=\"font-size:30px; font-family: monospace\">prima.</span>",
		"response": " ",
		"trial": "comp",
		"word": "prima.",
		"trial_type": "html-keyboard-response",
		"trial_index": 62,
		"time_elapsed": 255039,
		"internal_node_id": "0.0-3.0-1.37"
	},
	{
		"rt": 43112,
		"stimulus": "<span style=\"font-size:30px; font-family: monospace\">A moça comprou um diamante?</span>",
		"response": "s",
		"question": "A moça comprou um diamante?",
		"answer": "sim",
		"trial": "comp",
		"trial_type": "html-keyboard-response",
		"trial_index": 63,
		"time_elapsed": 298402,
		"internal_node_id": "0.0-3.0-2.37-0.37",
		"accuracy": false
	},
	{
		"rt": null,
		"stimulus": "<span style= \"font-size:30px; font-family: monospace\">+</span>",
		"response": null,
		"trial_part": "fixation",
		"trial_type": "html-keyboard-response",
		"trial_index": 64,
		"time_elapsed": 299903,
		"internal_node_id": "0.0-3.0-0.38-0.38"
	},
	{
		"rt": 11298,
		"stimulus": "<span style=\"font-size:30px; font-family: monospace\">Ganhamos</span>",
		"response": " ",
		"trial": "exp-sent",
		"word": "Ganhamos",
		"trial_type": "html-keyboard-response",
		"trial_index": 65,
		"time_elapsed": 311453,
		"internal_node_id": "0.0-3.0-1.38"
	},
	{
		"rt": 714,
		"stimulus": "<span style=\"font-size:30px; font-family: monospace\">passagem</span>",
		"response": " ",
		"trial": "exp-sent",
		"word": "passagem",
		"trial_type": "html-keyboard-response",
		"trial_index": 66,
		"time_elapsed": 312418,
		"internal_node_id": "0.0-3.0-1.39"
	},
	{
		"rt": 392,
		"stimulus": "<span style=\"font-size:30px; font-family: monospace\">para</span>",
		"response": " ",
		"trial": "exp-sent",
		"word": "para",
		"trial_type": "html-keyboard-response",
		"trial_index": 67,
		"time_elapsed": 313061,
		"internal_node_id": "0.0-3.0-1.40"
	},
	{
		"rt": 421,
		"stimulus": "<span style=\"font-size:30px; font-family: monospace\">uma</span>",
		"response": " ",
		"trial": "exp-sent",
		"word": "uma",
		"trial_type": "html-keyboard-response",
		"trial_index": 68,
		"time_elapsed": 313734,
		"internal_node_id": "0.0-3.0-1.41"
	},
	{
		"rt": 552,
		"stimulus": "<span style=\"font-size:30px; font-family: monospace\">viagem</span>",
		"response": " ",
		"trial": "exp-sent",
		"word": "viagem",
		"trial_type": "html-keyboard-response",
		"trial_index": 69,
		"time_elapsed": 314537,
		"internal_node_id": "0.0-3.0-1.42"
	},
	{
		"rt": 538,
		"stimulus": "<span style=\"font-size:30px; font-family: monospace\">de</span>",
		"response": " ",
		"trial": "exp-sent",
		"word": "de",
		"trial_type": "html-keyboard-response",
		"trial_index": 70,
		"time_elapsed": 315327,
		"internal_node_id": "0.0-3.0-1.43"
	},
	{
		"rt": 627,
		"stimulus": "<span style=\"font-size:30px; font-family: monospace\">férias.</span>",
		"response": " ",
		"trial": "exp-sent",
		"word": "férias.",
		"trial_type": "html-keyboard-response",
		"trial_index": 71,
		"time_elapsed": 316208,
		"internal_node_id": "0.0-3.0-1.44"
	},
	{
		"rt": null,
		"stimulus": "<span style= \"font-size:30px; font-family: monospace\">+</span>",
		"response": null,
		"trial_part": "fixation",
		"trial_type": "html-keyboard-response",
		"trial_index": 72,
		"time_elapsed": 317459,
		"internal_node_id": "0.0-3.0-0.45-0.45"
	},
	{
		"rt": 515,
		"stimulus": "<span style=\"font-size:30px; font-family: monospace\">Caiu</span>",
		"response": " ",
		"trial": "exp-sent",
		"word": "Caiu",
		"trial_type": "html-keyboard-response",
		"trial_index": 73,
		"time_elapsed": 318231,
		"internal_node_id": "0.0-3.0-1.45"
	},
	{
		"rt": 375,
		"stimulus": "<span style=\"font-size:30px; font-family: monospace\">algo</span>",
		"response": " ",
		"trial": "exp-sent",
		"word": "algo",
		"trial_type": "html-keyboard-response",
		"trial_index": 74,
		"time_elapsed": 318857,
		"internal_node_id": "0.0-3.0-1.46"
	},
	{
		"rt": 328,
		"stimulus": "<span style=\"font-size:30px; font-family: monospace\">no</span>",
		"response": " ",
		"trial": "exp-sent",
		"word": "no",
		"trial_type": "html-keyboard-response",
		"trial_index": 75,
		"time_elapsed": 319437,
		"internal_node_id": "0.0-3.0-1.47"
	},
	{
		"rt": 398,
		"stimulus": "<span style=\"font-size:30px; font-family: monospace\">meu</span>",
		"response": " ",
		"trial": "exp-sent",
		"word": "meu",
		"trial_type": "html-keyboard-response",
		"trial_index": 76,
		"time_elapsed": 320085,
		"internal_node_id": "0.0-3.0-1.48"
	},
	{
		"rt": 389,
		"stimulus": "<span style=\"font-size:30px; font-family: monospace\">olho</span>",
		"response": " ",
		"trial": "exp-sent",
		"word": "olho",
		"trial_type": "html-keyboard-response",
		"trial_index": 77,
		"time_elapsed": 320735,
		"internal_node_id": "0.0-3.0-1.49"
	},
	{
		"rt": 370,
		"stimulus": "<span style=\"font-size:30px; font-family: monospace\">ontem</span>",
		"response": " ",
		"trial": "exp-sent",
		"word": "ontem",
		"trial_type": "html-keyboard-response",
		"trial_index": 78,
		"time_elapsed": 321357,
		"internal_node_id": "0.0-3.0-1.50"
	},
	{
		"rt": 528,
		"stimulus": "<span style=\"font-size:30px; font-family: monospace\">de</span>",
		"response": " ",
		"trial": "exp-sent",
		"word": "de",
		"trial_type": "html-keyboard-response",
		"trial_index": 79,
		"time_elapsed": 322136,
		"internal_node_id": "0.0-3.0-1.51"
	},
	{
		"rt": 422,
		"stimulus": "<span style=\"font-size:30px; font-family: monospace\">tarde.</span>",
		"response": " ",
		"trial": "exp-sent",
		"word": "tarde.",
		"trial_type": "html-keyboard-response",
		"trial_index": 80,
		"time_elapsed": 322810,
		"internal_node_id": "0.0-3.0-1.52"
	},
	{
		"rt": null,
		"stimulus": "<span style= \"font-size:30px; font-family: monospace\">+</span>",
		"response": null,
		"trial_part": "fixation",
		"trial_type": "html-keyboard-response",
		"trial_index": 81,
		"time_elapsed": 324064,
		"internal_node_id": "0.0-3.0-0.53-0.53"
	},
	{
		"rt": 616,
		"stimulus": "<span style=\"font-size:30px; font-family: monospace\">Não</span>",
		"response": " ",
		"trial": "exp-sent",
		"word": "Não",
		"trial_type": "html-keyboard-response",
		"trial_index": 82,
		"time_elapsed": 324932,
		"internal_node_id": "0.0-3.0-1.53"
	},
	{
		"rt": 561,
		"stimulus": "<span style=\"font-size:30px; font-family: monospace\">havia</span>",
		"response": " ",
		"trial": "exp-sent",
		"word": "havia",
		"trial_type": "html-keyboard-response",
		"trial_index": 83,
		"time_elapsed": 325745,
		"internal_node_id": "0.0-3.0-1.54"
	},
	{
		"rt": 373,
		"stimulus": "<span style=\"font-size:30px; font-family: monospace\">mais</span>",
		"response": " ",
		"trial": "exp-sent",
		"word": "mais",
		"trial_type": "html-keyboard-response",
		"trial_index": 84,
		"time_elapsed": 326369,
		"internal_node_id": "0.0-3.0-1.55"
	},
	{
		"rt": 346,
		"stimulus": "<span style=\"font-size:30px; font-family: monospace\">nenhum</span>",
		"response": " ",
		"trial": "exp-sent",
		"word": "nenhum",
		"trial_type": "html-keyboard-response",
		"trial_index": 85,
		"time_elapsed": 326966,
		"internal_node_id": "0.0-3.0-1.56"
	},
	{
		"rt": 373,
		"stimulus": "<span style=\"font-size:30px; font-family: monospace\">ingresso</span>",
		"response": " ",
		"trial": "exp-sent",
		"word": "ingresso",
		"trial_type": "html-keyboard-response",
		"trial_index": 86,
		"time_elapsed": 327590,
		"internal_node_id": "0.0-3.0-1.57"
	},
	{
		"rt": 399,
		"stimulus": "<span style=\"font-size:30px; font-family: monospace\">para</span>",
		"response": " ",
		"trial": "exp-sent",
		"word": "para",
		"trial_type": "html-keyboard-response",
		"trial_index": 87,
		"time_elapsed": 328240,
		"internal_node_id": "0.0-3.0-1.58"
	},
	{
		"rt": 561,
		"stimulus": "<span style=\"font-size:30px; font-family: monospace\">o</span>",
		"response": " ",
		"trial": "exp-sent",
		"word": "o",
		"trial_type": "html-keyboard-response",
		"trial_index": 88,
		"time_elapsed": 329052,
		"internal_node_id": "0.0-3.0-1.59"
	},
	{
		"rt": 426,
		"stimulus": "<span style=\"font-size:30px; font-family: monospace\">evento.</span>",
		"response": " ",
		"trial": "exp-sent",
		"word": "evento.",
		"trial_type": "html-keyboard-response",
		"trial_index": 89,
		"time_elapsed": 329729,
		"internal_node_id": "0.0-3.0-1.60"
	},
	{
		"rt": null,
		"stimulus": "<span style= \"font-size:30px; font-family: monospace\">+</span>",
		"response": null,
		"trial_part": "fixation",
		"trial_type": "html-keyboard-response",
		"trial_index": 90,
		"time_elapsed": 330981,
		"internal_node_id": "0.0-3.0-0.61-0.61"
	},
	{
		"rt": 427,
		"stimulus": "<span style=\"font-size:30px; font-family: monospace\">A</span>",
		"response": " ",
		"trial": "exp-sent",
		"word": "A",
		"trial_type": "html-keyboard-response",
		"trial_index": 91,
		"time_elapsed": 331659,
		"internal_node_id": "0.0-3.0-1.61"
	},
	{
		"rt": 393,
		"stimulus": "<span style=\"font-size:30px; font-family: monospace\">médica</span>",
		"response": " ",
		"trial": "exp-sent",
		"word": "médica",
		"trial_type": "html-keyboard-response",
		"trial_index": 92,
		"time_elapsed": 332304,
		"internal_node_id": "0.0-3.0-1.62"
	},
	{
		"rt": 353,
		"stimulus": "<span style=\"font-size:30px; font-family: monospace\">descobriu</span>",
		"response": " ",
		"trial": "exp-sent",
		"word": "descobriu",
		"trial_type": "html-keyboard-response",
		"trial_index": 93,
		"time_elapsed": 332908,
		"internal_node_id": "0.0-3.0-1.63"
	},
	{
		"rt": 407,
		"stimulus": "<span style=\"font-size:30px; font-family: monospace\">uma</span>",
		"response": " ",
		"trial": "exp-sent",
		"word": "uma",
		"trial_type": "html-keyboard-response",
		"trial_index": 94,
		"time_elapsed": 333566,
		"internal_node_id": "0.0-3.0-1.64"
	},
	{
		"rt": 408,
		"stimulus": "<span style=\"font-size:30px; font-family: monospace\">cura</span>",
		"response": " ",
		"trial": "exp-sent",
		"word": "cura",
		"trial_type": "html-keyboard-response",
		"trial_index": 95,
		"time_elapsed": 334226,
		"internal_node_id": "0.0-3.0-1.65"
	},
	{
		"rt": 584,
		"stimulus": "<span style=\"font-size:30px; font-family: monospace\">para</span>",
		"response": " ",
		"trial": "exp-sent",
		"word": "para",
		"trial_type": "html-keyboard-response",
		"trial_index": 96,
		"time_elapsed": 335062,
		"internal_node_id": "0.0-3.0-1.66"
	},
	{
		"rt": 300,
		"stimulus": "<span style=\"font-size:30px; font-family: monospace\">a</span>",
		"response": " ",
		"trial": "exp-sent",
		"word": "a",
		"trial_type": "html-keyboard-response",
		"trial_index": 97,
		"time_elapsed": 335612,
		"internal_node_id": "0.0-3.0-1.67"
	},
	{
		"rt": 492,
		"stimulus": "<span style=\"font-size:30px; font-family: monospace\">doença.</span>",
		"response": " ",
		"trial": "exp-sent",
		"word": "doença.",
		"trial_type": "html-keyboard-response",
		"trial_index": 98,
		"time_elapsed": 336356,
		"internal_node_id": "0.0-3.0-1.68"
	},
	{
		"rt": null,
		"stimulus": "<span style= \"font-size:30px; font-family: monospace\">+</span>",
		"response": null,
		"trial_part": "fixation",
		"trial_type": "html-keyboard-response",
		"trial_index": 99,
		"time_elapsed": 337609,
		"internal_node_id": "0.0-3.0-0.69-0.69"
	},
	{
		"rt": 541,
		"stimulus": "<span style=\"font-size:30px; font-family: monospace\">O</span>",
		"response": " ",
		"trial": "exp-sent",
		"word": "O",
		"trial_type": "html-keyboard-response",
		"trial_index": 100,
		"time_elapsed": 338401,
		"internal_node_id": "0.0-3.0-1.69"
	},
	{
		"rt": 379,
		"stimulus": "<span style=\"font-size:30px; font-family: monospace\">menino</span>",
		"response": " ",
		"trial": "exp-sent",
		"word": "menino",
		"trial_type": "html-keyboard-response",
		"trial_index": 101,
		"time_elapsed": 339031,
		"internal_node_id": "0.0-3.0-1.70"
	},
	{
		"rt": 504,
		"stimulus": "<span style=\"font-size:30px; font-family: monospace\">riscou</span>",
		"response": " ",
		"trial": "exp-sent",
		"word": "riscou",
		"trial_type": "html-keyboard-response",
		"trial_index": 102,
		"time_elapsed": 339786,
		"internal_node_id": "0.0-3.0-1.71"
	},
	{
		"rt": 409,
		"stimulus": "<span style=\"font-size:30px; font-family: monospace\">o</span>",
		"response": " ",
		"trial": "exp-sent",
		"word": "o",
		"trial_type": "html-keyboard-response",
		"trial_index": 103,
		"time_elapsed": 340445,
		"internal_node_id": "0.0-3.0-1.72"
	},
	{
		"rt": 229,
		"stimulus": "<span style=\"font-size:30px; font-family: monospace\">caderno</span>",
		"response": " ",
		"trial": "exp-sent",
		"word": "caderno",
		"trial_type": "html-keyboard-response",
		"trial_index": 104,
		"time_elapsed": 340926,
		"internal_node_id": "0.0-3.0-1.73"
	},
	{
		"rt": 538,
		"stimulus": "<span style=\"font-size:30px; font-family: monospace\">com</span>",
		"response": " ",
		"trial": "exp-sent",
		"word": "com",
		"trial_type": "html-keyboard-response",
		"trial_index": 105,
		"time_elapsed": 341715,
		"internal_node_id": "0.0-3.0-1.74"
	},
	{
		"rt": 525,
		"stimulus": "<span style=\"font-size:30px; font-family: monospace\">a</span>",
		"response": " ",
		"trial": "exp-sent",
		"word": "a",
		"trial_type": "html-keyboard-response",
		"trial_index": 106,
		"time_elapsed": 342491,
		"internal_node_id": "0.0-3.0-1.75"
	},
	{
		"rt": 398,
		"stimulus": "<span style=\"font-size:30px; font-family: monospace\">caneta.</span>",
		"response": " ",
		"trial": "comp",
		"word": "caneta.",
		"trial_type": "html-keyboard-response",
		"trial_index": 107,
		"time_elapsed": 343140,
		"internal_node_id": "0.0-3.0-1.76"
	},
	{
		"rt": 3589,
		"stimulus": "<span style=\"font-size:30px; font-family: monospace\">O menino riscou a parede com a caneta?</span>",
		"response": "n",
		"question": "O menino riscou a parede com a caneta?",
		"answer": "não",
		"trial": "comp",
		"trial_type": "html-keyboard-response",
		"trial_index": 108,
		"time_elapsed": 346980,
		"internal_node_id": "0.0-3.0-2.76-0.76",
		"accuracy": false
	},
	{
		"rt": null,
		"stimulus": "<span style= \"font-size:30px; font-family: monospace\">+</span>",
		"response": null,
		"trial_part": "fixation",
		"trial_type": "html-keyboard-response",
		"trial_index": 109,
		"time_elapsed": 348482,
		"internal_node_id": "0.0-3.0-0.77-0.77"
	},
	{
		"rt": 170555,
		"stimulus": "<span style=\"font-size:30px; font-family: monospace\">Este</span>",
		"response": " ",
		"trial": "exp-sent",
		"word": "Este",
		"trial_type": "html-keyboard-response",
		"trial_index": 110,
		"time_elapsed": 519290,
		"internal_node_id": "0.0-3.0-1.77"
	},
	{
		"rt": 625,
		"stimulus": "<span style=\"font-size:30px; font-family: monospace\">conto</span>",
		"response": " ",
		"trial": "exp-sent",
		"word": "conto",
		"trial_type": "html-keyboard-response",
		"trial_index": 111,
		"time_elapsed": 520167,
		"internal_node_id": "0.0-3.0-1.78"
	},
	{
		"rt": 518,
		"stimulus": "<span style=\"font-size:30px; font-family: monospace\">tem</span>",
		"response": " ",
		"trial": "exp-sent",
		"word": "tem",
		"trial_type": "html-keyboard-response",
		"trial_index": 112,
		"time_elapsed": 520937,
		"internal_node_id": "0.0-3.0-1.79"
	},
	{
		"rt": 440,
		"stimulus": "<span style=\"font-size:30px; font-family: monospace\">um</span>",
		"response": " ",
		"trial": "exp-sent",
		"word": "um",
		"trial_type": "html-keyboard-response",
		"trial_index": 113,
		"time_elapsed": 521629,
		"internal_node_id": "0.0-3.0-1.80"
	},
	{
		"rt": 660,
		"stimulus": "<span style=\"font-size:30px; font-family: monospace\">final</span>",
		"response": " ",
		"trial": "exp-sent",
		"word": "final",
		"trial_type": "html-keyboard-response",
		"trial_index": 114,
		"time_elapsed": 522540,
		"internal_node_id": "0.0-3.0-1.81"
	},
	{
		"rt": 1221,
		"stimulus": "<span style=\"font-size:30px; font-family: monospace\">perfeito.</span>",
		"response": " ",
		"trial": "exp-sent",
		"word": "perfeito.",
		"trial_type": "html-keyboard-response",
		"trial_index": 115,
		"time_elapsed": 524012,
		"internal_node_id": "0.0-3.0-1.82"
	},
	{
		"rt": null,
		"stimulus": "<span style= \"font-size:30px; font-family: monospace\">+</span>",
		"response": null,
		"trial_part": "fixation",
		"trial_type": "html-keyboard-response",
		"trial_index": 116,
		"time_elapsed": 525264,
		"internal_node_id": "0.0-3.0-0.83-0.83"
	},
	{
		"rt": 610,
		"stimulus": "<span style=\"font-size:30px; font-family: monospace\">Ele</span>",
		"response": " ",
		"trial": "exp-sent",
		"word": "Ele",
		"trial_type": "html-keyboard-response",
		"trial_index": 117,
		"time_elapsed": 526126,
		"internal_node_id": "0.0-3.0-1.83"
	},
	{
		"rt": 649,
		"stimulus": "<span style=\"font-size:30px; font-family: monospace\">precisa</span>",
		"response": " ",
		"trial": "exp-sent",
		"word": "precisa",
		"trial_type": "html-keyboard-response",
		"trial_index": 118,
		"time_elapsed": 527026,
		"internal_node_id": "0.0-3.0-1.84"
	},
	{
		"rt": 462,
		"stimulus": "<span style=\"font-size:30px; font-family: monospace\">de</span>",
		"response": " ",
		"trial": "exp-sent",
		"word": "de",
		"trial_type": "html-keyboard-response",
		"trial_index": 119,
		"time_elapsed": 527740,
		"internal_node_id": "0.0-3.0-1.85"
	},
	{
		"rt": 355,
		"stimulus": "<span style=\"font-size:30px; font-family: monospace\">um</span>",
		"response": " ",
		"trial": "exp-sent",
		"word": "um",
		"trial_type": "html-keyboard-response",
		"trial_index": 120,
		"time_elapsed": 528374,
		"internal_node_id": "0.0-3.0-1.86"
	},
	{
		"rt": 917,
		"stimulus": "<span style=\"font-size:30px; font-family: monospace\">protetor</span>",
		"response": " ",
		"trial": "exp-sent",
		"word": "protetor",
		"trial_type": "html-keyboard-response",
		"trial_index": 121,
		"time_elapsed": 529543,
		"internal_node_id": "0.0-3.0-1.87"
	},
	{
		"rt": 441,
		"stimulus": "<span style=\"font-size:30px; font-family: monospace\">de</span>",
		"response": " ",
		"trial": "exp-sent",
		"word": "de",
		"trial_type": "html-keyboard-response",
		"trial_index": 122,
		"time_elapsed": 530235,
		"internal_node_id": "0.0-3.0-1.88"
	},
	{
		"rt": 450,
		"stimulus": "<span style=\"font-size:30px; font-family: monospace\">ouvido.</span>",
		"response": " ",
		"trial": "exp-sent",
		"word": "ouvido.",
		"trial_type": "html-keyboard-response",
		"trial_index": 123,
		"time_elapsed": 530937,
		"internal_node_id": "0.0-3.0-1.89"
	},
	{
		"rt": null,
		"stimulus": "<span style= \"font-size:30px; font-family: monospace\">+</span>",
		"response": null,
		"trial_part": "fixation",
		"trial_type": "html-keyboard-response",
		"trial_index": 124,
		"time_elapsed": 532188,
		"internal_node_id": "0.0-3.0-0.90-0.90"
	},
	{
		"rt": 480,
		"stimulus": "<span style=\"font-size:30px; font-family: monospace\">Os</span>",
		"response": " ",
		"trial": "exp-sent",
		"word": "Os",
		"trial_type": "html-keyboard-response",
		"trial_index": 125,
		"time_elapsed": 532919,
		"internal_node_id": "0.0-3.0-1.90"
	},
	{
		"rt": 632,
		"stimulus": "<span style=\"font-size:30px; font-family: monospace\">hábitos</span>",
		"response": " ",
		"trial": "exp-sent",
		"word": "hábitos",
		"trial_type": "html-keyboard-response",
		"trial_index": 126,
		"time_elapsed": 533803,
		"internal_node_id": "0.0-3.0-1.91"
	},
	{
		"rt": 449,
		"stimulus": "<span style=\"font-size:30px; font-family: monospace\">de</span>",
		"response": " ",
		"trial": "exp-sent",
		"word": "de",
		"trial_type": "html-keyboard-response",
		"trial_index": 127,
		"time_elapsed": 534504,
		"internal_node_id": "0.0-3.0-1.92"
	},
	{
		"rt": 677,
		"stimulus": "<span style=\"font-size:30px; font-family: monospace\">lugares</span>",
		"response": " ",
		"trial": "exp-sent",
		"word": "lugares",
		"trial_type": "html-keyboard-response",
		"trial_index": 128,
		"time_elapsed": 535432,
		"internal_node_id": "0.0-3.0-1.93"
	},
	{
		"rt": 642,
		"stimulus": "<span style=\"font-size:30px; font-family: monospace\">diferentes</span>",
		"response": " ",
		"trial": "exp-sent",
		"word": "diferentes",
		"trial_type": "html-keyboard-response",
		"trial_index": 129,
		"time_elapsed": 536325,
		"internal_node_id": "0.0-3.0-1.94"
	},
	{
		"rt": 493,
		"stimulus": "<span style=\"font-size:30px; font-family: monospace\">são</span>",
		"response": " ",
		"trial": "exp-sent",
		"word": "são",
		"trial_type": "html-keyboard-response",
		"trial_index": 130,
		"time_elapsed": 537069,
		"internal_node_id": "0.0-3.0-1.95"
	},
	{
		"rt": 422,
		"stimulus": "<span style=\"font-size:30px; font-family: monospace\">muito</span>",
		"response": " ",
		"trial": "exp-sent",
		"word": "muito",
		"trial_type": "html-keyboard-response",
		"trial_index": 131,
		"time_elapsed": 537742,
		"internal_node_id": "0.0-3.0-1.96"
	},
	{
		"rt": 491,
		"stimulus": "<span style=\"font-size:30px; font-family: monospace\">lindos.</span>",
		"response": " ",
		"trial": "exp-sent",
		"word": "lindos.",
		"trial_type": "html-keyboard-response",
		"trial_index": 132,
		"time_elapsed": 538484,
		"internal_node_id": "0.0-3.0-1.97"
	},
	{
		"rt": null,
		"stimulus": "<span style= \"font-size:30px; font-family: monospace\">+</span>",
		"response": null,
		"trial_part": "fixation",
		"trial_type": "html-keyboard-response",
		"trial_index": 133,
		"time_elapsed": 539737,
		"internal_node_id": "0.0-3.0-0.98-0.98"
	},
	{
		"rt": 695,
		"stimulus": "<span style=\"font-size:30px; font-family: monospace\">O</span>",
		"response": " ",
		"trial": "exp-sent",
		"word": "O",
		"trial_type": "html-keyboard-response",
		"trial_index": 134,
		"time_elapsed": 540683,
		"internal_node_id": "0.0-3.0-1.98"
	},
	{
		"rt": 516,
		"stimulus": "<span style=\"font-size:30px; font-family: monospace\">médico</span>",
		"response": " ",
		"trial": "exp-sent",
		"word": "médico",
		"trial_type": "html-keyboard-response",
		"trial_index": 135,
		"time_elapsed": 541449,
		"internal_node_id": "0.0-3.0-1.99"
	},
	{
		"rt": 926,
		"stimulus": "<span style=\"font-size:30px; font-family: monospace\">corrigiu</span>",
		"response": " ",
		"trial": "exp-sent",
		"word": "corrigiu",
		"trial_type": "html-keyboard-response",
		"trial_index": 136,
		"time_elapsed": 542626,
		"internal_node_id": "0.0-3.0-1.100"
	},
	{
		"rt": 576,
		"stimulus": "<span style=\"font-size:30px; font-family: monospace\">a</span>",
		"response": " ",
		"trial": "exp-sent",
		"word": "a",
		"trial_type": "html-keyboard-response",
		"trial_index": 137,
		"time_elapsed": 543457,
		"internal_node_id": "0.0-3.0-1.101"
	},
	{
		"rt": 644,
		"stimulus": "<span style=\"font-size:30px; font-family: monospace\">postura</span>",
		"response": " ",
		"trial": "exp-sent",
		"word": "postura",
		"trial_type": "html-keyboard-response",
		"trial_index": 138,
		"time_elapsed": 544354,
		"internal_node_id": "0.0-3.0-1.102"
	},
	{
		"rt": 448,
		"stimulus": "<span style=\"font-size:30px; font-family: monospace\">das</span>",
		"response": " ",
		"trial": "exp-sent",
		"word": "das",
		"trial_type": "html-keyboard-response",
		"trial_index": 139,
		"time_elapsed": 545055,
		"internal_node_id": "0.0-3.0-1.103"
	},
	{
		"rt": 707,
		"stimulus": "<span style=\"font-size:30px; font-family: monospace\">costas</span>",
		"response": " ",
		"trial": "exp-sent",
		"word": "costas",
		"trial_type": "html-keyboard-response",
		"trial_index": 140,
		"time_elapsed": 546013,
		"internal_node_id": "0.0-3.0-1.104"
	},
	{
		"rt": 630,
		"stimulus": "<span style=\"font-size:30px; font-family: monospace\">da</span>",
		"response": " ",
		"trial": "exp-sent",
		"word": "da",
		"trial_type": "html-keyboard-response",
		"trial_index": 141,
		"time_elapsed": 546899,
		"internal_node_id": "0.0-3.0-1.105"
	},
	{
		"rt": 660,
		"stimulus": "<span style=\"font-size:30px; font-family: monospace\">pessoa.</span>",
		"response": " ",
		"trial": "exp-sent",
		"word": "pessoa.",
		"trial_type": "html-keyboard-response",
		"trial_index": 142,
		"time_elapsed": 547811,
		"internal_node_id": "0.0-3.0-1.106"
	},
	{
		"rt": null,
		"stimulus": "<span style= \"font-size:30px; font-family: monospace\">+</span>",
		"response": null,
		"trial_part": "fixation",
		"trial_type": "html-keyboard-response",
		"trial_index": 143,
		"time_elapsed": 549069,
		"internal_node_id": "0.0-3.0-0.107-0.107"
	},
	{
		"rt": 585,
		"stimulus": "<span style=\"font-size:30px; font-family: monospace\">Aquele</span>",
		"response": " ",
		"trial": "exp-sent",
		"word": "Aquele",
		"trial_type": "html-keyboard-response",
		"trial_index": 144,
		"time_elapsed": 549908,
		"internal_node_id": "0.0-3.0-1.107"
	},
	{
		"rt": 433,
		"stimulus": "<span style=\"font-size:30px; font-family: monospace\">era</span>",
		"response": " ",
		"trial": "exp-sent",
		"word": "era",
		"trial_type": "html-keyboard-response",
		"trial_index": 145,
		"time_elapsed": 550593,
		"internal_node_id": "0.0-3.0-1.108"
	},
	{
		"rt": 599,
		"stimulus": "<span style=\"font-size:30px; font-family: monospace\">um</span>",
		"response": " ",
		"trial": "exp-sent",
		"word": "um",
		"trial_type": "html-keyboard-response",
		"trial_index": 146,
		"time_elapsed": 551443,
		"internal_node_id": "0.0-3.0-1.109"
	},
	{
		"rt": 400,
		"stimulus": "<span style=\"font-size:30px; font-family: monospace\">caso</span>",
		"response": " ",
		"trial": "exp-sent",
		"word": "caso",
		"trial_type": "html-keyboard-response",
		"trial_index": 147,
		"time_elapsed": 552099,
		"internal_node_id": "0.0-3.0-1.110"
	},
	{
		"rt": 390,
		"stimulus": "<span style=\"font-size:30px; font-family: monospace\">real</span>",
		"response": " ",
		"trial": "exp-sent",
		"word": "real",
		"trial_type": "html-keyboard-response",
		"trial_index": 148,
		"time_elapsed": 552740,
		"internal_node_id": "0.0-3.0-1.111"
	},
	{
		"rt": 573,
		"stimulus": "<span style=\"font-size:30px; font-family: monospace\">de</span>",
		"response": " ",
		"trial": "exp-sent",
		"word": "de",
		"trial_type": "html-keyboard-response",
		"trial_index": 149,
		"time_elapsed": 553565,
		"internal_node_id": "0.0-3.0-1.112"
	},
	{
		"rt": 737,
		"stimulus": "<span style=\"font-size:30px; font-family: monospace\">sequestro</span>",
		"response": " ",
		"trial": "exp-sent",
		"word": "sequestro",
		"trial_type": "html-keyboard-response",
		"trial_index": 150,
		"time_elapsed": 554553,
		"internal_node_id": "0.0-3.0-1.113"
	},
	{
		"rt": 842,
		"stimulus": "<span style=\"font-size:30px; font-family: monospace\">premeditado.</span>",
		"response": " ",
		"trial": "comp",
		"word": "premeditado.",
		"trial_type": "html-keyboard-response",
		"trial_index": 151,
		"time_elapsed": 555647,
		"internal_node_id": "0.0-3.0-1.114"
	},
	{
		"rt": 4507,
		"stimulus": "<span style=\"font-size:30px; font-family: monospace\">Aquele era um caso real de roubo?</span>",
		"response": "n",
		"question": "Aquele era um caso real de roubo?",
		"answer": "não",
		"trial": "comp",
		"trial_type": "html-keyboard-response",
		"trial_index": 152,
		"time_elapsed": 560405,
		"internal_node_id": "0.0-3.0-2.114-0.114",
		"accuracy": false
	},
	{
		"rt": null,
		"stimulus": "<span style= \"font-size:30px; font-family: monospace\">+</span>",
		"response": null,
		"trial_part": "fixation",
		"trial_type": "html-keyboard-response",
		"trial_index": 153,
		"time_elapsed": 561909,
		"internal_node_id": "0.0-3.0-0.115-0.115"
	},
	{
		"rt": 564,
		"stimulus": "<span style=\"font-size:30px; font-family: monospace\">Minha</span>",
		"response": " ",
		"trial": "exp-sent",
		"word": "Minha",
		"trial_type": "html-keyboard-response",
		"trial_index": 154,
		"time_elapsed": 562724,
		"internal_node_id": "0.0-3.0-1.115"
	},
	{
		"rt": 882,
		"stimulus": "<span style=\"font-size:30px; font-family: monospace\">prima</span>",
		"response": " ",
		"trial": "exp-sent",
		"word": "prima",
		"trial_type": "html-keyboard-response",
		"trial_index": 155,
		"time_elapsed": 563857,
		"internal_node_id": "0.0-3.0-1.116"
	},
	{
		"rt": 454,
		"stimulus": "<span style=\"font-size:30px; font-family: monospace\">trocou</span>",
		"response": " ",
		"trial": "exp-sent",
		"word": "trocou",
		"trial_type": "html-keyboard-response",
		"trial_index": 156,
		"time_elapsed": 564562,
		"internal_node_id": "0.0-3.0-1.117"
	},
	{
		"rt": 444,
		"stimulus": "<span style=\"font-size:30px; font-family: monospace\">a</span>",
		"response": " ",
		"trial": "exp-sent",
		"word": "a",
		"trial_type": "html-keyboard-response",
		"trial_index": 157,
		"time_elapsed": 565257,
		"internal_node_id": "0.0-3.0-1.118"
	},
	{
		"rt": 679,
		"stimulus": "<span style=\"font-size:30px; font-family: monospace\">tela</span>",
		"response": " ",
		"trial": "exp-sent",
		"word": "tela",
		"trial_type": "html-keyboard-response",
		"trial_index": 158,
		"time_elapsed": 566188,
		"internal_node_id": "0.0-3.0-1.119"
	},
	{
		"rt": 699,
		"stimulus": "<span style=\"font-size:30px; font-family: monospace\">do</span>",
		"response": " ",
		"trial": "exp-sent",
		"word": "do",
		"trial_type": "html-keyboard-response",
		"trial_index": 159,
		"time_elapsed": 567138,
		"internal_node_id": "0.0-3.0-1.120"
	},
	{
		"rt": 360,
		"stimulus": "<span style=\"font-size:30px; font-family: monospace\">celular</span>",
		"response": " ",
		"trial": "exp-sent",
		"word": "celular",
		"trial_type": "html-keyboard-response",
		"trial_index": 160,
		"time_elapsed": 567750,
		"internal_node_id": "0.0-3.0-1.121"
	},
	{
		"rt": 394,
		"stimulus": "<span style=\"font-size:30px; font-family: monospace\">duas</span>",
		"response": " ",
		"trial": "exp-sent",
		"word": "duas",
		"trial_type": "html-keyboard-response",
		"trial_index": 161,
		"time_elapsed": 568395,
		"internal_node_id": "0.0-3.0-1.122"
	},
	{
		"rt": 524,
		"stimulus": "<span style=\"font-size:30px; font-family: monospace\">vezes.</span>",
		"response": " ",
		"trial": "exp-sent",
		"word": "vezes.",
		"trial_type": "html-keyboard-response",
		"trial_index": 162,
		"time_elapsed": 569170,
		"internal_node_id": "0.0-3.0-1.123"
	},
	{
		"rt": null,
		"stimulus": "<span style= \"font-size:30px; font-family: monospace\">+</span>",
		"response": null,
		"trial_part": "fixation",
		"trial_type": "html-keyboard-response",
		"trial_index": 163,
		"time_elapsed": 570422,
		"internal_node_id": "0.0-3.0-0.124-0.124"
	},
	{
		"rt": 607,
		"stimulus": "<span style=\"font-size:30px; font-family: monospace\">Agora</span>",
		"response": " ",
		"trial": "exp-sent",
		"word": "Agora",
		"trial_type": "html-keyboard-response",
		"trial_index": 164,
		"time_elapsed": 571280,
		"internal_node_id": "0.0-3.0-1.124"
	},
	{
		"rt": 465,
		"stimulus": "<span style=\"font-size:30px; font-family: monospace\">a</span>",
		"response": " ",
		"trial": "exp-sent",
		"word": "a",
		"trial_type": "html-keyboard-response",
		"trial_index": 165,
		"time_elapsed": 571997,
		"internal_node_id": "0.0-3.0-1.125"
	},
	{
		"rt": 439,
		"stimulus": "<span style=\"font-size:30px; font-family: monospace\">minha</span>",
		"response": " ",
		"trial": "exp-sent",
		"word": "minha",
		"trial_type": "html-keyboard-response",
		"trial_index": 166,
		"time_elapsed": 572695,
		"internal_node_id": "0.0-3.0-1.126"
	},
	{
		"rt": 484,
		"stimulus": "<span style=\"font-size:30px; font-family: monospace\">única</span>",
		"response": " ",
		"trial": "exp-sent",
		"word": "única",
		"trial_type": "html-keyboard-response",
		"trial_index": 167,
		"time_elapsed": 573430,
		"internal_node_id": "0.0-3.0-1.127"
	},
	{
		"rt": 556,
		"stimulus": "<span style=\"font-size:30px; font-family: monospace\">preocupação</span>",
		"response": " ",
		"trial": "exp-sent",
		"word": "preocupação",
		"trial_type": "html-keyboard-response",
		"trial_index": 168,
		"time_elapsed": 574237,
		"internal_node_id": "0.0-3.0-1.128"
	},
	{
		"rt": 509,
		"stimulus": "<span style=\"font-size:30px; font-family: monospace\">é</span>",
		"response": " ",
		"trial": "exp-sent",
		"word": "é",
		"trial_type": "html-keyboard-response",
		"trial_index": 169,
		"time_elapsed": 574997,
		"internal_node_id": "0.0-3.0-1.129"
	},
	{
		"rt": 511,
		"stimulus": "<span style=\"font-size:30px; font-family: monospace\">um</span>",
		"response": " ",
		"trial": "exp-sent",
		"word": "um",
		"trial_type": "html-keyboard-response",
		"trial_index": 170,
		"time_elapsed": 575761,
		"internal_node_id": "0.0-3.0-1.130"
	},
	{
		"rt": 665,
		"stimulus": "<span style=\"font-size:30px; font-family: monospace\">descanso</span>",
		"response": " ",
		"trial": "exp-sent",
		"word": "descanso",
		"trial_type": "html-keyboard-response",
		"trial_index": 171,
		"time_elapsed": 576677,
		"internal_node_id": "0.0-3.0-1.131"
	},
	{
		"rt": 595,
		"stimulus": "<span style=\"font-size:30px; font-family: monospace\">tranquilo.</span>",
		"response": " ",
		"trial": "exp-sent",
		"word": "tranquilo.",
		"trial_type": "html-keyboard-response",
		"trial_index": 172,
		"time_elapsed": 577524,
		"internal_node_id": "0.0-3.0-1.132"
	},
	{
		"rt": null,
		"stimulus": "<span style= \"font-size:30px; font-family: monospace\">+</span>",
		"response": null,
		"trial_part": "fixation",
		"trial_type": "html-keyboard-response",
		"trial_index": 173,
		"time_elapsed": 578776,
		"internal_node_id": "0.0-3.0-0.133-0.133"
	},
	{
		"rt": 496,
		"stimulus": "<span style=\"font-size:30px; font-family: monospace\">A</span>",
		"response": " ",
		"trial": "exp-sent",
		"word": "A",
		"trial_type": "html-keyboard-response",
		"trial_index": 174,
		"time_elapsed": 579524,
		"internal_node_id": "0.0-3.0-1.133"
	},
	{
		"rt": 693,
		"stimulus": "<span style=\"font-size:30px; font-family: monospace\">criança</span>",
		"response": " ",
		"trial": "exp-sent",
		"word": "criança",
		"trial_type": "html-keyboard-response",
		"trial_index": 175,
		"time_elapsed": 580468,
		"internal_node_id": "0.0-3.0-1.134"
	},
	{
		"rt": 519,
		"stimulus": "<span style=\"font-size:30px; font-family: monospace\">ganhou</span>",
		"response": " ",
		"trial": "exp-sent",
		"word": "ganhou",
		"trial_type": "html-keyboard-response",
		"trial_index": 176,
		"time_elapsed": 581238,
		"internal_node_id": "0.0-3.0-1.135"
	},
	{
		"rt": 562,
		"stimulus": "<span style=\"font-size:30px; font-family: monospace\">um</span>",
		"response": " ",
		"trial": "exp-sent",
		"word": "um",
		"trial_type": "html-keyboard-response",
		"trial_index": 177,
		"time_elapsed": 582052,
		"internal_node_id": "0.0-3.0-1.136"
	},
	{
		"rt": 569,
		"stimulus": "<span style=\"font-size:30px; font-family: monospace\">presente</span>",
		"response": " ",
		"trial": "exp-sent",
		"word": "presente",
		"trial_type": "html-keyboard-response",
		"trial_index": 178,
		"time_elapsed": 582873,
		"internal_node_id": "0.0-3.0-1.137"
	},
	{
		"rt": 783,
		"stimulus": "<span style=\"font-size:30px; font-family: monospace\">maravilhoso.</span>",
		"response": " ",
		"trial": "exp-sent",
		"word": "maravilhoso.",
		"trial_type": "html-keyboard-response",
		"trial_index": 179,
		"time_elapsed": 583907,
		"internal_node_id": "0.0-3.0-1.138"
	},
	{
		"rt": null,
		"stimulus": "<span style= \"font-size:30px; font-family: monospace\">+</span>",
		"response": null,
		"trial_part": "fixation",
		"trial_type": "html-keyboard-response",
		"trial_index": 180,
		"time_elapsed": 585159,
		"internal_node_id": "0.0-3.0-0.139-0.139"
	},
	{
		"rt": 500,
		"stimulus": "<span style=\"font-size:30px; font-family: monospace\">Os</span>",
		"response": " ",
		"trial": "exp-sent",
		"word": "Os",
		"trial_type": "html-keyboard-response",
		"trial_index": 181,
		"time_elapsed": 585911,
		"internal_node_id": "0.0-3.0-1.139"
	},
	{
		"rt": 478,
		"stimulus": "<span style=\"font-size:30px; font-family: monospace\">bichos</span>",
		"response": " ",
		"trial": "exp-sent",
		"word": "bichos",
		"trial_type": "html-keyboard-response",
		"trial_index": 182,
		"time_elapsed": 586640,
		"internal_node_id": "0.0-3.0-1.140"
	},
	{
		"rt": 412,
		"stimulus": "<span style=\"font-size:30px; font-family: monospace\">têm</span>",
		"response": " ",
		"trial": "exp-sent",
		"word": "têm",
		"trial_type": "html-keyboard-response",
		"trial_index": 183,
		"time_elapsed": 587303,
		"internal_node_id": "0.0-3.0-1.141"
	},
	{
		"rt": 411,
		"stimulus": "<span style=\"font-size:30px; font-family: monospace\">um</span>",
		"response": " ",
		"trial": "exp-sent",
		"word": "um",
		"trial_type": "html-keyboard-response",
		"trial_index": 184,
		"time_elapsed": 587965,
		"internal_node_id": "0.0-3.0-1.142"
	},
	{
		"rt": 785,
		"stimulus": "<span style=\"font-size:30px; font-family: monospace\">instinto</span>",
		"response": " ",
		"trial": "exp-sent",
		"word": "instinto",
		"trial_type": "html-keyboard-response",
		"trial_index": 185,
		"time_elapsed": 589001,
		"internal_node_id": "0.0-3.0-1.143"
	},
	{
		"rt": 453,
		"stimulus": "<span style=\"font-size:30px; font-family: monospace\">de</span>",
		"response": " ",
		"trial": "exp-sent",
		"word": "de",
		"trial_type": "html-keyboard-response",
		"trial_index": 186,
		"time_elapsed": 589705,
		"internal_node_id": "0.0-3.0-1.144"
	},
	{
		"rt": 1157,
		"stimulus": "<span style=\"font-size:30px; font-family: monospace\">sobrevivência</span>",
		"response": " ",
		"trial": "exp-sent",
		"word": "sobrevivência",
		"trial_type": "html-keyboard-response",
		"trial_index": 187,
		"time_elapsed": 591114,
		"internal_node_id": "0.0-3.0-1.145"
	},
	{
		"rt": 1588,
		"stimulus": "<span style=\"font-size:30px; font-family: monospace\">forte.</span>",
		"response": " ",
		"trial": "exp-sent",
		"word": "forte.",
		"trial_type": "html-keyboard-response",
		"trial_index": 188,
		"time_elapsed": 592953,
		"internal_node_id": "0.0-3.0-1.146"
	},
	{
		"rt": null,
		"stimulus": "<span style= \"font-size:30px; font-family: monospace\">+</span>",
		"response": null,
		"trial_part": "fixation",
		"trial_type": "html-keyboard-response",
		"trial_index": 189,
		"time_elapsed": 594207,
		"internal_node_id": "0.0-3.0-0.147-0.147"
	},
	{
		"rt": 596,
		"stimulus": "<span style=\"font-size:30px; font-family: monospace\">Aquele</span>",
		"response": " ",
		"trial": "exp-sent",
		"word": "Aquele",
		"trial_type": "html-keyboard-response",
		"trial_index": 190,
		"time_elapsed": 595059,
		"internal_node_id": "0.0-3.0-1.147"
	},
	{
		"rt": 384,
		"stimulus": "<span style=\"font-size:30px; font-family: monospace\">menino</span>",
		"response": " ",
		"trial": "exp-sent",
		"word": "menino",
		"trial_type": "html-keyboard-response",
		"trial_index": 191,
		"time_elapsed": 595694,
		"internal_node_id": "0.0-3.0-1.148"
	},
	{
		"rt": 375,
		"stimulus": "<span style=\"font-size:30px; font-family: monospace\">alto</span>",
		"response": " ",
		"trial": "exp-sent",
		"word": "alto",
		"trial_type": "html-keyboard-response",
		"trial_index": 192,
		"time_elapsed": 596322,
		"internal_node_id": "0.0-3.0-1.149"
	},
	{
		"rt": 526,
		"stimulus": "<span style=\"font-size:30px; font-family: monospace\">é</span>",
		"response": " ",
		"trial": "exp-sent",
		"word": "é",
		"trial_type": "html-keyboard-response",
		"trial_index": 193,
		"time_elapsed": 597100,
		"internal_node_id": "0.0-3.0-1.150"
	},
	{
		"rt": 397,
		"stimulus": "<span style=\"font-size:30px; font-family: monospace\">exibido</span>",
		"response": " ",
		"trial": "exp-sent",
		"word": "exibido",
		"trial_type": "html-keyboard-response",
		"trial_index": 194,
		"time_elapsed": 597749,
		"internal_node_id": "0.0-3.0-1.151"
	},
	{
		"rt": 581,
		"stimulus": "<span style=\"font-size:30px; font-family: monospace\">e</span>",
		"response": " ",
		"trial": "exp-sent",
		"word": "e",
		"trial_type": "html-keyboard-response",
		"trial_index": 195,
		"time_elapsed": 598582,
		"internal_node_id": "0.0-3.0-1.152"
	},
	{
		"rt": 1094,
		"stimulus": "<span style=\"font-size:30px; font-family: monospace\">sovina.</span>",
		"response": " ",
		"trial": "comp",
		"word": "sovina.",
		"trial_type": "html-keyboard-response",
		"trial_index": 196,
		"time_elapsed": 599926,
		"internal_node_id": "0.0-3.0-1.153"
	},
	{
		"rt": 2311,
		"stimulus": "<span style=\"font-size:30px; font-family: monospace\">Aquele menino é humilde?</span>",
		"response": "n",
		"question": "Aquele menino é humilde?",
		"answer": "não",
		"trial": "comp",
		"trial_type": "html-keyboard-response",
		"trial_index": 197,
		"time_elapsed": 602488,
		"internal_node_id": "0.0-3.0-2.153-0.153",
		"accuracy": false
	},
	{
		"rt": null,
		"stimulus": "<span style= \"font-size:30px; font-family: monospace\">+</span>",
		"response": null,
		"trial_part": "fixation",
		"trial_type": "html-keyboard-response",
		"trial_index": 198,
		"time_elapsed": 603992,
		"internal_node_id": "0.0-3.0-0.154-0.154"
	},
	{
		"rt": 1332,
		"stimulus": "<span style=\"font-size:30px; font-family: monospace\">O</span>",
		"response": " ",
		"trial": "exp-sent",
		"word": "O",
		"trial_type": "html-keyboard-response",
		"trial_index": 199,
		"time_elapsed": 605574,
		"internal_node_id": "0.0-3.0-1.154"
	},
	{
		"rt": 1016,
		"stimulus": "<span style=\"font-size:30px; font-family: monospace\">travesseiro</span>",
		"response": " ",
		"trial": "exp-sent",
		"word": "travesseiro",
		"trial_type": "html-keyboard-response",
		"trial_index": 200,
		"time_elapsed": 606842,
		"internal_node_id": "0.0-3.0-1.155"
	},
	{
		"rt": 471,
		"stimulus": "<span style=\"font-size:30px; font-family: monospace\">era</span>",
		"response": " ",
		"trial": "exp-sent",
		"word": "era",
		"trial_type": "html-keyboard-response",
		"trial_index": 201,
		"time_elapsed": 607564,
		"internal_node_id": "0.0-3.0-1.156"
	},
	{
		"rt": 1317,
		"stimulus": "<span style=\"font-size:30px; font-family: monospace\">muito</span>",
		"response": " ",
		"trial": "exp-sent",
		"word": "muito",
		"trial_type": "html-keyboard-response",
		"trial_index": 202,
		"time_elapsed": 609133,
		"internal_node_id": "0.0-3.0-1.157"
	},
	{
		"rt": 860,
		"stimulus": "<span style=\"font-size:30px; font-family: monospace\">macio</span>",
		"response": " ",
		"trial": "exp-sent",
		"word": "macio",
		"trial_type": "html-keyboard-response",
		"trial_index": 203,
		"time_elapsed": 610244,
		"internal_node_id": "0.0-3.0-1.158"
	},
	{
		"rt": 507,
		"stimulus": "<span style=\"font-size:30px; font-family: monospace\">e</span>",
		"response": " ",
		"trial": "exp-sent",
		"word": "e",
		"trial_type": "html-keyboard-response",
		"trial_index": 204,
		"time_elapsed": 611003,
		"internal_node_id": "0.0-3.0-1.159"
	},
	{
		"rt": 800,
		"stimulus": "<span style=\"font-size:30px; font-family: monospace\">confortável.</span>",
		"response": " ",
		"trial": "exp-sent",
		"word": "confortável.",
		"trial_type": "html-keyboard-response",
		"trial_index": 205,
		"time_elapsed": 612054,
		"internal_node_id": "0.0-3.0-1.160"
	},
	{
		"rt": null,
		"stimulus": "<span style= \"font-size:30px; font-family: monospace\">+</span>",
		"response": null,
		"trial_part": "fixation",
		"trial_type": "html-keyboard-response",
		"trial_index": 206,
		"time_elapsed": 613309,
		"internal_node_id": "0.0-3.0-0.161-0.161"
	},
	{
		"rt": 713,
		"stimulus": "<span style=\"font-size:30px; font-family: monospace\">Hoje</span>",
		"response": " ",
		"trial": "exp-sent",
		"word": "Hoje",
		"trial_type": "html-keyboard-response",
		"trial_index": 207,
		"time_elapsed": 614273,
		"internal_node_id": "0.0-3.0-1.161"
	},
	{
		"rt": 466,
		"stimulus": "<span style=\"font-size:30px; font-family: monospace\">a</span>",
		"response": " ",
		"trial": "exp-sent",
		"word": "a",
		"trial_type": "html-keyboard-response",
		"trial_index": 208,
		"time_elapsed": 614990,
		"internal_node_id": "0.0-3.0-1.162"
	},
	{
		"rt": 908,
		"stimulus": "<span style=\"font-size:30px; font-family: monospace\">atendente</span>",
		"response": " ",
		"trial": "exp-sent",
		"word": "atendente",
		"trial_type": "html-keyboard-response",
		"trial_index": 209,
		"time_elapsed": 616150,
		"internal_node_id": "0.0-3.0-1.163"
	},
	{
		"rt": 586,
		"stimulus": "<span style=\"font-size:30px; font-family: monospace\">estava</span>",
		"response": " ",
		"trial": "exp-sent",
		"word": "estava",
		"trial_type": "html-keyboard-response",
		"trial_index": 210,
		"time_elapsed": 616987,
		"internal_node_id": "0.0-3.0-1.164"
	},
	{
		"rt": 801,
		"stimulus": "<span style=\"font-size:30px; font-family: monospace\">furiosa</span>",
		"response": " ",
		"trial": "exp-sent",
		"word": "furiosa",
		"trial_type": "html-keyboard-response",
		"trial_index": 211,
		"time_elapsed": 618040,
		"internal_node_id": "0.0-3.0-1.165"
	},
	{
		"rt": 443,
		"stimulus": "<span style=\"font-size:30px; font-family: monospace\">com</span>",
		"response": " ",
		"trial": "exp-sent",
		"word": "com",
		"trial_type": "html-keyboard-response",
		"trial_index": 212,
		"time_elapsed": 618735,
		"internal_node_id": "0.0-3.0-1.166"
	},
	{
		"rt": 490,
		"stimulus": "<span style=\"font-size:30px; font-family: monospace\">o</span>",
		"response": " ",
		"trial": "exp-sent",
		"word": "o",
		"trial_type": "html-keyboard-response",
		"trial_index": 213,
		"time_elapsed": 619475,
		"internal_node_id": "0.0-3.0-1.167"
	},
	{
		"rt": 1308,
		"stimulus": "<span style=\"font-size:30px; font-family: monospace\">cliente.</span>",
		"response": " ",
		"trial": "exp-sent",
		"word": "cliente.",
		"trial_type": "html-keyboard-response",
		"trial_index": 214,
		"time_elapsed": 621034,
		"internal_node_id": "0.0-3.0-1.168"
	},
	{
		"rt": null,
		"stimulus": "<span style= \"font-size:30px; font-family: monospace\">+</span>",
		"response": null,
		"trial_part": "fixation",
		"trial_type": "html-keyboard-response",
		"trial_index": 215,
		"time_elapsed": 622286,
		"internal_node_id": "0.0-3.0-0.169-0.169"
	},
	{
		"rt": 760,
		"stimulus": "<span style=\"font-size:30px; font-family: monospace\">O</span>",
		"response": " ",
		"trial": "exp-sent",
		"word": "O",
		"trial_type": "html-keyboard-response",
		"trial_index": 216,
		"time_elapsed": 623298,
		"internal_node_id": "0.0-3.0-1.169"
	},
	{
		"rt": 700,
		"stimulus": "<span style=\"font-size:30px; font-family: monospace\">vizinho</span>",
		"response": " ",
		"trial": "exp-sent",
		"word": "vizinho",
		"trial_type": "html-keyboard-response",
		"trial_index": 217,
		"time_elapsed": 624251,
		"internal_node_id": "0.0-3.0-1.170"
	},
	{
		"rt": 498,
		"stimulus": "<span style=\"font-size:30px; font-family: monospace\">é</span>",
		"response": " ",
		"trial": "exp-sent",
		"word": "é",
		"trial_type": "html-keyboard-response",
		"trial_index": 218,
		"time_elapsed": 625001,
		"internal_node_id": "0.0-3.0-1.171"
	},
	{
		"rt": 522,
		"stimulus": "<span style=\"font-size:30px; font-family: monospace\">um</span>",
		"response": " ",
		"trial": "exp-sent",
		"word": "um",
		"trial_type": "html-keyboard-response",
		"trial_index": 219,
		"time_elapsed": 625774,
		"internal_node_id": "0.0-3.0-1.172"
	},
	{
		"rt": 1048,
		"stimulus": "<span style=\"font-size:30px; font-family: monospace\">arquiteto</span>",
		"response": " ",
		"trial": "exp-sent",
		"word": "arquiteto",
		"trial_type": "html-keyboard-response",
		"trial_index": 220,
		"time_elapsed": 627074,
		"internal_node_id": "0.0-3.0-1.173"
	},
	{
		"rt": 781,
		"stimulus": "<span style=\"font-size:30px; font-family: monospace\">muito</span>",
		"response": " ",
		"trial": "exp-sent",
		"word": "muito",
		"trial_type": "html-keyboard-response",
		"trial_index": 221,
		"time_elapsed": 628119,
		"internal_node_id": "0.0-3.0-1.174"
	},
	{
		"rt": 1542,
		"stimulus": "<span style=\"font-size:30px; font-family: monospace\">excêntrico.</span>",
		"response": " ",
		"trial": "exp-sent",
		"word": "excêntrico.",
		"trial_type": "html-keyboard-response",
		"trial_index": 222,
		"time_elapsed": 629926,
		"internal_node_id": "0.0-3.0-1.175"
	},
	{
		"rt": null,
		"stimulus": "<span style= \"font-size:30px; font-family: monospace\">+</span>",
		"response": null,
		"trial_part": "fixation",
		"trial_type": "html-keyboard-response",
		"trial_index": 223,
		"time_elapsed": 631178,
		"internal_node_id": "0.0-3.0-0.176-0.176"
	},
	{
		"rt": 640,
		"stimulus": "<span style=\"font-size:30px; font-family: monospace\">A</span>",
		"response": " ",
		"trial": "exp-sent",
		"word": "A",
		"trial_type": "html-keyboard-response",
		"trial_index": 224,
		"time_elapsed": 632069,
		"internal_node_id": "0.0-3.0-1.176"
	},
	{
		"rt": 442,
		"stimulus": "<span style=\"font-size:30px; font-family: monospace\">nossa</span>",
		"response": " ",
		"trial": "exp-sent",
		"word": "nossa",
		"trial_type": "html-keyboard-response",
		"trial_index": 225,
		"time_elapsed": 632762,
		"internal_node_id": "0.0-3.0-1.177"
	},
	{
		"rt": 476,
		"stimulus": "<span style=\"font-size:30px; font-family: monospace\">colega</span>",
		"response": " ",
		"trial": "exp-sent",
		"word": "colega",
		"trial_type": "html-keyboard-response",
		"trial_index": 226,
		"time_elapsed": 633490,
		"internal_node_id": "0.0-3.0-1.178"
	},
	{
		"rt": 371,
		"stimulus": "<span style=\"font-size:30px; font-family: monospace\">foi</span>",
		"response": " ",
		"trial": "exp-sent",
		"word": "foi",
		"trial_type": "html-keyboard-response",
		"trial_index": 227,
		"time_elapsed": 634112,
		"internal_node_id": "0.0-3.0-1.179"
	},
	{
		"rt": 451,
		"stimulus": "<span style=\"font-size:30px; font-family: monospace\">má</span>",
		"response": " ",
		"trial": "exp-sent",
		"word": "má",
		"trial_type": "html-keyboard-response",
		"trial_index": 228,
		"time_elapsed": 634814,
		"internal_node_id": "0.0-3.0-1.180"
	},
	{
		"rt": 481,
		"stimulus": "<span style=\"font-size:30px; font-family: monospace\">com</span>",
		"response": " ",
		"trial": "exp-sent",
		"word": "com",
		"trial_type": "html-keyboard-response",
		"trial_index": 229,
		"time_elapsed": 635546,
		"internal_node_id": "0.0-3.0-1.181"
	},
	{
		"rt": 418,
		"stimulus": "<span style=\"font-size:30px; font-family: monospace\">as</span>",
		"response": " ",
		"trial": "exp-sent",
		"word": "as",
		"trial_type": "html-keyboard-response",
		"trial_index": 230,
		"time_elapsed": 636218,
		"internal_node_id": "0.0-3.0-1.182"
	},
	{
		"rt": 420,
		"stimulus": "<span style=\"font-size:30px; font-family: monospace\">crianças.</span>",
		"response": " ",
		"trial": "exp-sent",
		"word": "crianças.",
		"trial_type": "html-keyboard-response",
		"trial_index": 231,
		"time_elapsed": 636890,
		"internal_node_id": "0.0-3.0-1.183"
	},
	{
		"rt": null,
		"stimulus": "<span style= \"font-size:30px; font-family: monospace\">+</span>",
		"response": null,
		"trial_part": "fixation",
		"trial_type": "html-keyboard-response",
		"trial_index": 232,
		"time_elapsed": 638141,
		"internal_node_id": "0.0-3.0-0.184-0.184"
	},
	{
		"rt": 1501,
		"stimulus": "<span style=\"font-size:30px; font-family: monospace\">Virtudes</span>",
		"response": " ",
		"trial": "exp-sent",
		"word": "Virtudes",
		"trial_type": "html-keyboard-response",
		"trial_index": 233,
		"time_elapsed": 639906,
		"internal_node_id": "0.0-3.0-1.184"
	},
	{
		"rt": 668,
		"stimulus": "<span style=\"font-size:30px; font-family: monospace\">não</span>",
		"response": " ",
		"trial": "exp-sent",
		"word": "não",
		"trial_type": "html-keyboard-response",
		"trial_index": 234,
		"time_elapsed": 640826,
		"internal_node_id": "0.0-3.0-1.185"
	},
	{
		"rt": 510,
		"stimulus": "<span style=\"font-size:30px; font-family: monospace\">são</span>",
		"response": " ",
		"trial": "exp-sent",
		"word": "são",
		"trial_type": "html-keyboard-response",
		"trial_index": 235,
		"time_elapsed": 641588,
		"internal_node_id": "0.0-3.0-1.186"
	},
	{
		"rt": 1017,
		"stimulus": "<span style=\"font-size:30px; font-family: monospace\">preguiça,</span>",
		"response": " ",
		"trial": "exp-sent",
		"word": "preguiça,",
		"trial_type": "html-keyboard-response",
		"trial_index": 236,
		"time_elapsed": 642857,
		"internal_node_id": "0.0-3.0-1.187"
	},
	{
		"rt": 430,
		"stimulus": "<span style=\"font-size:30px; font-family: monospace\">gula</span>",
		"response": " ",
		"trial": "exp-sent",
		"word": "gula",
		"trial_type": "html-keyboard-response",
		"trial_index": 237,
		"time_elapsed": 643538,
		"internal_node_id": "0.0-3.0-1.188"
	},
	{
		"rt": 539,
		"stimulus": "<span style=\"font-size:30px; font-family: monospace\">nem</span>",
		"response": " ",
		"trial": "exp-sent",
		"word": "nem",
		"trial_type": "html-keyboard-response",
		"trial_index": 238,
		"time_elapsed": 644328,
		"internal_node_id": "0.0-3.0-1.189"
	},
	{
		"rt": 1461,
		"stimulus": "<span style=\"font-size:30px; font-family: monospace\">ganância.</span>",
		"response": " ",
		"trial": "comp",
		"word": "ganância.",
		"trial_type": "html-keyboard-response",
		"trial_index": 239,
		"time_elapsed": 646040,
		"internal_node_id": "0.0-3.0-1.190"
	},
	{
		"rt": 10813,
		"stimulus": "<span style=\"font-size:30px; font-family: monospace\">Preguiça é uma virtude?</span>",
		"response": "s",
		"question": "Preguiça é uma virtude?",
		"answer": "não",
		"trial": "comp",
		"trial_type": "html-keyboard-response",
		"trial_index": 240,
		"time_elapsed": 657104,
		"internal_node_id": "0.0-3.0-2.190-0.190",
		"accuracy": false
	},
	{
		"rt": null,
		"stimulus": "<span style= \"font-size:30px; font-family: monospace\">+</span>",
		"response": null,
		"trial_part": "fixation",
		"trial_type": "html-keyboard-response",
		"trial_index": 241,
		"time_elapsed": 658607,
		"internal_node_id": "0.0-3.0-0.191-0.191"
	},
	{
		"rt": 706,
		"stimulus": "<span style=\"font-size:30px; font-family: monospace\">Preciso</span>",
		"response": " ",
		"trial": "exp-sent",
		"word": "Preciso",
		"trial_type": "html-keyboard-response",
		"trial_index": 242,
		"time_elapsed": 659566,
		"internal_node_id": "0.0-3.0-1.191"
	},
	{
		"rt": 386,
		"stimulus": "<span style=\"font-size:30px; font-family: monospace\">de</span>",
		"response": " ",
		"trial": "exp-sent",
		"word": "de",
		"trial_type": "html-keyboard-response",
		"trial_index": 243,
		"time_elapsed": 660203,
		"internal_node_id": "0.0-3.0-1.192"
	},
	{
		"rt": 387,
		"stimulus": "<span style=\"font-size:30px; font-family: monospace\">um</span>",
		"response": " ",
		"trial": "exp-sent",
		"word": "um",
		"trial_type": "html-keyboard-response",
		"trial_index": 244,
		"time_elapsed": 660841,
		"internal_node_id": "0.0-3.0-1.193"
	},
	{
		"rt": 647,
		"stimulus": "<span style=\"font-size:30px; font-family: monospace\">relatório</span>",
		"response": " ",
		"trial": "exp-sent",
		"word": "relatório",
		"trial_type": "html-keyboard-response",
		"trial_index": 245,
		"time_elapsed": 661739,
		"internal_node_id": "0.0-3.0-1.194"
	},
	{
		"rt": 337,
		"stimulus": "<span style=\"font-size:30px; font-family: monospace\">oficial</span>",
		"response": " ",
		"trial": "exp-sent",
		"word": "oficial",
		"trial_type": "html-keyboard-response",
		"trial_index": 246,
		"time_elapsed": 662326,
		"internal_node_id": "0.0-3.0-1.195"
	},
	{
		"rt": 429,
		"stimulus": "<span style=\"font-size:30px; font-family: monospace\">para</span>",
		"response": " ",
		"trial": "exp-sent",
		"word": "para",
		"trial_type": "html-keyboard-response",
		"trial_index": 247,
		"time_elapsed": 663007,
		"internal_node_id": "0.0-3.0-1.196"
	},
	{
		"rt": 833,
		"stimulus": "<span style=\"font-size:30px; font-family: monospace\">amanhã.</span>",
		"response": " ",
		"trial": "exp-sent",
		"word": "amanhã.",
		"trial_type": "html-keyboard-response",
		"trial_index": 248,
		"time_elapsed": 664091,
		"internal_node_id": "0.0-3.0-1.197"
	},
	{
		"rt": null,
		"stimulus": "<span style= \"font-size:30px; font-family: monospace\">+</span>",
		"response": null,
		"trial_part": "fixation",
		"trial_type": "html-keyboard-response",
		"trial_index": 249,
		"time_elapsed": 665343,
		"internal_node_id": "0.0-3.0-0.198-0.198"
	},
	{
		"rt": 487,
		"stimulus": "<span style=\"font-size:30px; font-family: monospace\">Ele</span>",
		"response": " ",
		"trial": "exp-sent",
		"word": "Ele",
		"trial_type": "html-keyboard-response",
		"trial_index": 250,
		"time_elapsed": 666081,
		"internal_node_id": "0.0-3.0-1.198"
	},
	{
		"rt": 317,
		"stimulus": "<span style=\"font-size:30px; font-family: monospace\">viu</span>",
		"response": " ",
		"trial": "exp-sent",
		"word": "viu",
		"trial_type": "html-keyboard-response",
		"trial_index": 251,
		"time_elapsed": 666654,
		"internal_node_id": "0.0-3.0-1.199"
	},
	{
		"rt": 440,
		"stimulus": "<span style=\"font-size:30px; font-family: monospace\">um</span>",
		"response": " ",
		"trial": "exp-sent",
		"word": "um",
		"trial_type": "html-keyboard-response",
		"trial_index": 252,
		"time_elapsed": 667346,
		"internal_node_id": "0.0-3.0-1.200"
	},
	{
		"rt": 511,
		"stimulus": "<span style=\"font-size:30px; font-family: monospace\">inseto</span>",
		"response": " ",
		"trial": "exp-sent",
		"word": "inseto",
		"trial_type": "html-keyboard-response",
		"trial_index": 253,
		"time_elapsed": 668109,
		"internal_node_id": "0.0-3.0-1.201"
	},
	{
		"rt": 631,
		"stimulus": "<span style=\"font-size:30px; font-family: monospace\">marrom</span>",
		"response": " ",
		"trial": "exp-sent",
		"word": "marrom",
		"trial_type": "html-keyboard-response",
		"trial_index": 254,
		"time_elapsed": 668990,
		"internal_node_id": "0.0-3.0-1.202"
	},
	{
		"rt": 565,
		"stimulus": "<span style=\"font-size:30px; font-family: monospace\">na</span>",
		"response": " ",
		"trial": "exp-sent",
		"word": "na",
		"trial_type": "html-keyboard-response",
		"trial_index": 255,
		"time_elapsed": 669807,
		"internal_node_id": "0.0-3.0-1.203"
	},
	{
		"rt": 643,
		"stimulus": "<span style=\"font-size:30px; font-family: monospace\">parede.</span>",
		"response": " ",
		"trial": "exp-sent",
		"word": "parede.",
		"trial_type": "html-keyboard-response",
		"trial_index": 256,
		"time_elapsed": 670700,
		"internal_node_id": "0.0-3.0-1.204"
	},
	{
		"rt": null,
		"stimulus": "<span style= \"font-size:30px; font-family: monospace\">+</span>",
		"response": null,
		"trial_part": "fixation",
		"trial_type": "html-keyboard-response",
		"trial_index": 257,
		"time_elapsed": 671952,
		"internal_node_id": "0.0-3.0-0.205-0.205"
	},
	{
		"rt": 271,
		"stimulus": "<span style=\"font-size:30px; font-family: monospace\">O</span>",
		"response": " ",
		"trial": "exp-sent",
		"word": "O",
		"trial_type": "html-keyboard-response",
		"trial_index": 258,
		"time_elapsed": 672475,
		"internal_node_id": "0.0-3.0-1.205"
	},
	{
		"rt": 746,
		"stimulus": "<span style=\"font-size:30px; font-family: monospace\">avô</span>",
		"response": " ",
		"trial": "exp-sent",
		"word": "avô",
		"trial_type": "html-keyboard-response",
		"trial_index": 259,
		"time_elapsed": 673484,
		"internal_node_id": "0.0-3.0-1.206"
	},
	{
		"rt": 449,
		"stimulus": "<span style=\"font-size:30px; font-family: monospace\">fez</span>",
		"response": " ",
		"trial": "exp-sent",
		"word": "fez",
		"trial_type": "html-keyboard-response",
		"trial_index": 260,
		"time_elapsed": 674193,
		"internal_node_id": "0.0-3.0-1.207"
	},
	{
		"rt": 489,
		"stimulus": "<span style=\"font-size:30px; font-family: monospace\">uma</span>",
		"response": " ",
		"trial": "exp-sent",
		"word": "uma",
		"trial_type": "html-keyboard-response",
		"trial_index": 261,
		"time_elapsed": 674934,
		"internal_node_id": "0.0-3.0-1.208"
	},
	{
		"rt": 799,
		"stimulus": "<span style=\"font-size:30px; font-family: monospace\">lista</span>",
		"response": " ",
		"trial": "exp-sent",
		"word": "lista",
		"trial_type": "html-keyboard-response",
		"trial_index": 262,
		"time_elapsed": 675984,
		"internal_node_id": "0.0-3.0-1.209"
	},
	{
		"rt": 441,
		"stimulus": "<span style=\"font-size:30px; font-family: monospace\">de</span>",
		"response": " ",
		"trial": "exp-sent",
		"word": "de",
		"trial_type": "html-keyboard-response",
		"trial_index": 263,
		"time_elapsed": 676678,
		"internal_node_id": "0.0-3.0-1.210"
	},
	{
		"rt": 992,
		"stimulus": "<span style=\"font-size:30px; font-family: monospace\">compras</span>",
		"response": " ",
		"trial": "exp-sent",
		"word": "compras",
		"trial_type": "html-keyboard-response",
		"trial_index": 264,
		"time_elapsed": 677921,
		"internal_node_id": "0.0-3.0-1.211"
	},
	{
		"rt": 635,
		"stimulus": "<span style=\"font-size:30px; font-family: monospace\">do</span>",
		"response": " ",
		"trial": "exp-sent",
		"word": "do",
		"trial_type": "html-keyboard-response",
		"trial_index": 265,
		"time_elapsed": 678808,
		"internal_node_id": "0.0-3.0-1.212"
	},
	{
		"rt": 1061,
		"stimulus": "<span style=\"font-size:30px; font-family: monospace\">mercado.</span>",
		"response": " ",
		"trial": "exp-sent",
		"word": "mercado.",
		"trial_type": "html-keyboard-response",
		"trial_index": 266,
		"time_elapsed": 680121,
		"internal_node_id": "0.0-3.0-1.213"
	},
	{
		"rt": null,
		"stimulus": "<span style= \"font-size:30px; font-family: monospace\">+</span>",
		"response": null,
		"trial_part": "fixation",
		"trial_type": "html-keyboard-response",
		"trial_index": 267,
		"time_elapsed": 681373,
		"internal_node_id": "0.0-3.0-0.214-0.214"
	},
	{
		"rt": 1190,
		"stimulus": "<span style=\"font-size:30px; font-family: monospace\">As</span>",
		"response": " ",
		"trial": "exp-sent",
		"word": "As",
		"trial_type": "html-keyboard-response",
		"trial_index": 268,
		"time_elapsed": 682814,
		"internal_node_id": "0.0-3.0-1.214"
	},
	{
		"rt": 552,
		"stimulus": "<span style=\"font-size:30px; font-family: monospace\">pessoas</span>",
		"response": " ",
		"trial": "exp-sent",
		"word": "pessoas",
		"trial_type": "html-keyboard-response",
		"trial_index": 269,
		"time_elapsed": 683618,
		"internal_node_id": "0.0-3.0-1.215"
	},
	{
		"rt": 431,
		"stimulus": "<span style=\"font-size:30px; font-family: monospace\">não</span>",
		"response": " ",
		"trial": "exp-sent",
		"word": "não",
		"trial_type": "html-keyboard-response",
		"trial_index": 270,
		"time_elapsed": 684300,
		"internal_node_id": "0.0-3.0-1.216"
	},
	{
		"rt": 491,
		"stimulus": "<span style=\"font-size:30px; font-family: monospace\">enviam</span>",
		"response": " ",
		"trial": "exp-sent",
		"word": "enviam",
		"trial_type": "html-keyboard-response",
		"trial_index": 271,
		"time_elapsed": 685043,
		"internal_node_id": "0.0-3.0-1.217"
	},
	{
		"rt": 552,
		"stimulus": "<span style=\"font-size:30px; font-family: monospace\">telegrama</span>",
		"response": " ",
		"trial": "exp-sent",
		"word": "telegrama",
		"trial_type": "html-keyboard-response",
		"trial_index": 272,
		"time_elapsed": 685849,
		"internal_node_id": "0.0-3.0-1.218"
	},
	{
		"rt": 397,
		"stimulus": "<span style=\"font-size:30px; font-family: monospace\">nos</span>",
		"response": " ",
		"trial": "exp-sent",
		"word": "nos",
		"trial_type": "html-keyboard-response",
		"trial_index": 273,
		"time_elapsed": 686497,
		"internal_node_id": "0.0-3.0-1.219"
	},
	{
		"rt": 435,
		"stimulus": "<span style=\"font-size:30px; font-family: monospace\">dias</span>",
		"response": " ",
		"trial": "exp-sent",
		"word": "dias",
		"trial_type": "html-keyboard-response",
		"trial_index": 274,
		"time_elapsed": 687183,
		"internal_node_id": "0.0-3.0-1.220"
	},
	{
		"rt": 462,
		"stimulus": "<span style=\"font-size:30px; font-family: monospace\">de</span>",
		"response": " ",
		"trial": "exp-sent",
		"word": "de",
		"trial_type": "html-keyboard-response",
		"trial_index": 275,
		"time_elapsed": 687896,
		"internal_node_id": "0.0-3.0-1.221"
	},
	{
		"rt": 500,
		"stimulus": "<span style=\"font-size:30px; font-family: monospace\">hoje.</span>",
		"response": " ",
		"trial": "exp-sent",
		"word": "hoje.",
		"trial_type": "html-keyboard-response",
		"trial_index": 276,
		"time_elapsed": 688647,
		"internal_node_id": "0.0-3.0-1.222"
	},
	{
		"rt": null,
		"stimulus": "<span style= \"font-size:30px; font-family: monospace\">+</span>",
		"response": null,
		"trial_part": "fixation",
		"trial_type": "html-keyboard-response",
		"trial_index": 277,
		"time_elapsed": 689899,
		"internal_node_id": "0.0-3.0-0.223-0.223"
	},
	{
		"rt": 430,
		"stimulus": "<span style=\"font-size:30px; font-family: monospace\">Ele</span>",
		"response": " ",
		"trial": "exp-sent",
		"word": "Ele",
		"trial_type": "html-keyboard-response",
		"trial_index": 278,
		"time_elapsed": 690581,
		"internal_node_id": "0.0-3.0-1.223"
	},
	{
		"rt": 387,
		"stimulus": "<span style=\"font-size:30px; font-family: monospace\">não</span>",
		"response": " ",
		"trial": "exp-sent",
		"word": "não",
		"trial_type": "html-keyboard-response",
		"trial_index": 279,
		"time_elapsed": 691219,
		"internal_node_id": "0.0-3.0-1.224"
	},
	{
		"rt": 308,
		"stimulus": "<span style=\"font-size:30px; font-family: monospace\">gosta</span>",
		"response": " ",
		"trial": "exp-sent",
		"word": "gosta",
		"trial_type": "html-keyboard-response",
		"trial_index": 280,
		"time_elapsed": 691779,
		"internal_node_id": "0.0-3.0-1.225"
	},
	{
		"rt": 347,
		"stimulus": "<span style=\"font-size:30px; font-family: monospace\">de</span>",
		"response": " ",
		"trial": "exp-sent",
		"word": "de",
		"trial_type": "html-keyboard-response",
		"trial_index": 281,
		"time_elapsed": 692377,
		"internal_node_id": "0.0-3.0-1.226"
	},
	{
		"rt": 328,
		"stimulus": "<span style=\"font-size:30px; font-family: monospace\">tomate</span>",
		"response": " ",
		"trial": "exp-sent",
		"word": "tomate",
		"trial_type": "html-keyboard-response",
		"trial_index": 282,
		"time_elapsed": 692957,
		"internal_node_id": "0.0-3.0-1.227"
	},
	{
		"rt": 488,
		"stimulus": "<span style=\"font-size:30px; font-family: monospace\">misturado</span>",
		"response": " ",
		"trial": "exp-sent",
		"word": "misturado",
		"trial_type": "html-keyboard-response",
		"trial_index": 283,
		"time_elapsed": 693697,
		"internal_node_id": "0.0-3.0-1.228"
	},
	{
		"rt": 376,
		"stimulus": "<span style=\"font-size:30px; font-family: monospace\">na</span>",
		"response": " ",
		"trial": "exp-sent",
		"word": "na",
		"trial_type": "html-keyboard-response",
		"trial_index": 284,
		"time_elapsed": 694325,
		"internal_node_id": "0.0-3.0-1.229"
	},
	{
		"rt": 421,
		"stimulus": "<span style=\"font-size:30px; font-family: monospace\">comida.</span>",
		"response": " ",
		"trial": "comp",
		"word": "comida.",
		"trial_type": "html-keyboard-response",
		"trial_index": 285,
		"time_elapsed": 694997,
		"internal_node_id": "0.0-3.0-1.230"
	},
	{
		"rt": 7231,
		"stimulus": "<span style=\"font-size:30px; font-family: monospace\">Ele gosta de tomate na comida?</span>",
		"response": "n",
		"question": "Ele gosta de tomate na comida?",
		"answer": "não",
		"trial": "comp",
		"trial_type": "html-keyboard-response",
		"trial_index": 286,
		"time_elapsed": 702480,
		"internal_node_id": "0.0-3.0-2.230-0.230",
		"accuracy": false
	},
	{
		"rt": null,
		"stimulus": "<span style= \"font-size:30px; font-family: monospace\">+</span>",
		"response": null,
		"trial_part": "fixation",
		"trial_type": "html-keyboard-response",
		"trial_index": 287,
		"time_elapsed": 703982,
		"internal_node_id": "0.0-3.0-0.231-0.231"
	},
	{
		"rt": 470,
		"stimulus": "<span style=\"font-size:30px; font-family: monospace\">Ele</span>",
		"response": " ",
		"trial": "exp-sent",
		"word": "Ele",
		"trial_type": "html-keyboard-response",
		"trial_index": 288,
		"time_elapsed": 704703,
		"internal_node_id": "0.0-3.0-1.231"
	},
	{
		"rt": 35,
		"stimulus": "<span style=\"font-size:30px; font-family: monospace\">é</span>",
		"response": " ",
		"trial": "exp-sent",
		"word": "é",
		"trial_type": "html-keyboard-response",
		"trial_index": 289,
		"time_elapsed": 704990,
		"internal_node_id": "0.0-3.0-1.232"
	},
	{
		"rt": 12,
		"stimulus": "<span style=\"font-size:30px; font-family: monospace\">um</span>",
		"response": " ",
		"trial": "exp-sent",
		"word": "um",
		"trial_type": "html-keyboard-response",
		"trial_index": 290,
		"time_elapsed": 705253,
		"internal_node_id": "0.0-3.0-1.233"
	},
	{
		"rt": 167,
		"stimulus": "<span style=\"font-size:30px; font-family: monospace\">pai</span>",
		"response": " ",
		"trial": "exp-sent",
		"word": "pai",
		"trial_type": "html-keyboard-response",
		"trial_index": 291,
		"time_elapsed": 705671,
		"internal_node_id": "0.0-3.0-1.234"
	},
	{
		"rt": 189,
		"stimulus": "<span style=\"font-size:30px; font-family: monospace\">ausente</span>",
		"response": " ",
		"trial": "exp-sent",
		"word": "ausente",
		"trial_type": "html-keyboard-response",
		"trial_index": 292,
		"time_elapsed": 706111,
		"internal_node_id": "0.0-3.0-1.235"
	},
	{
		"rt": 434,
		"stimulus": "<span style=\"font-size:30px; font-family: monospace\">e</span>",
		"response": " ",
		"trial": "exp-sent",
		"word": "e",
		"trial_type": "html-keyboard-response",
		"trial_index": 293,
		"time_elapsed": 706796,
		"internal_node_id": "0.0-3.0-1.236"
	},
	{
		"rt": 192,
		"stimulus": "<span style=\"font-size:30px; font-family: monospace\">muito</span>",
		"response": " ",
		"trial": "exp-sent",
		"word": "muito",
		"trial_type": "html-keyboard-response",
		"trial_index": 294,
		"time_elapsed": 707240,
		"internal_node_id": "0.0-3.0-1.237"
	},
	{
		"rt": 982,
		"stimulus": "<span style=\"font-size:30px; font-family: monospace\">fofoqueiro.</span>",
		"response": " ",
		"trial": "exp-sent",
		"word": "fofoqueiro.",
		"trial_type": "html-keyboard-response",
		"trial_index": 295,
		"time_elapsed": 708474,
		"internal_node_id": "0.0-3.0-1.238"
	},
	{
		"rt": null,
		"stimulus": "<span style= \"font-size:30px; font-family: monospace\">+</span>",
		"response": null,
		"trial_part": "fixation",
		"trial_type": "html-keyboard-response",
		"trial_index": 296,
		"time_elapsed": 709725,
		"internal_node_id": "0.0-3.0-0.239-0.239"
	},
	{
		"rt": 565,
		"stimulus": "<span style=\"font-size:30px; font-family: monospace\">O</span>",
		"response": " ",
		"trial": "exp-sent",
		"word": "O",
		"trial_type": "html-keyboard-response",
		"trial_index": 297,
		"time_elapsed": 710541,
		"internal_node_id": "0.0-3.0-1.239"
	},
	{
		"rt": 545,
		"stimulus": "<span style=\"font-size:30px; font-family: monospace\">filho</span>",
		"response": " ",
		"trial": "exp-sent",
		"word": "filho",
		"trial_type": "html-keyboard-response",
		"trial_index": 298,
		"time_elapsed": 711338,
		"internal_node_id": "0.0-3.0-1.240"
	},
	{
		"rt": 406,
		"stimulus": "<span style=\"font-size:30px; font-family: monospace\">lavou</span>",
		"response": " ",
		"trial": "exp-sent",
		"word": "lavou",
		"trial_type": "html-keyboard-response",
		"trial_index": 299,
		"time_elapsed": 711995,
		"internal_node_id": "0.0-3.0-1.241"
	},
	{
		"rt": 390,
		"stimulus": "<span style=\"font-size:30px; font-family: monospace\">a</span>",
		"response": " ",
		"trial": "exp-sent",
		"word": "a",
		"trial_type": "html-keyboard-response",
		"trial_index": 300,
		"time_elapsed": 712636,
		"internal_node_id": "0.0-3.0-1.242"
	},
	{
		"rt": 167,
		"stimulus": "<span style=\"font-size:30px; font-family: monospace\">roupa</span>",
		"response": " ",
		"trial": "exp-sent",
		"word": "roupa",
		"trial_type": "html-keyboard-response",
		"trial_index": 301,
		"time_elapsed": 713054,
		"internal_node_id": "0.0-3.0-1.243"
	},
	{
		"rt": 441,
		"stimulus": "<span style=\"font-size:30px; font-family: monospace\">sem</span>",
		"response": " ",
		"trial": "exp-sent",
		"word": "sem",
		"trial_type": "html-keyboard-response",
		"trial_index": 302,
		"time_elapsed": 713746,
		"internal_node_id": "0.0-3.0-1.244"
	},
	{
		"rt": 605,
		"stimulus": "<span style=\"font-size:30px; font-family: monospace\">nenhuma</span>",
		"response": " ",
		"trial": "exp-sent",
		"word": "nenhuma",
		"trial_type": "html-keyboard-response",
		"trial_index": 303,
		"time_elapsed": 714602,
		"internal_node_id": "0.0-3.0-1.245"
	},
	{
		"rt": 315,
		"stimulus": "<span style=\"font-size:30px; font-family: monospace\">ajuda.</span>",
		"response": " ",
		"trial": "exp-sent",
		"word": "ajuda.",
		"trial_type": "html-keyboard-response",
		"trial_index": 304,
		"time_elapsed": 715169,
		"internal_node_id": "0.0-3.0-1.246"
	},
	{
		"rt": null,
		"stimulus": "<span style= \"font-size:30px; font-family: monospace\">+</span>",
		"response": null,
		"trial_part": "fixation",
		"trial_type": "html-keyboard-response",
		"trial_index": 305,
		"time_elapsed": 716421,
		"internal_node_id": "0.0-3.0-0.247-0.247"
	},
	{
		"rt": 442,
		"stimulus": "<span style=\"font-size:30px; font-family: monospace\">O</span>",
		"response": " ",
		"trial": "exp-sent",
		"word": "O",
		"trial_type": "html-keyboard-response",
		"trial_index": 306,
		"time_elapsed": 717114,
		"internal_node_id": "0.0-3.0-1.247"
	},
	{
		"rt": 329,
		"stimulus": "<span style=\"font-size:30px; font-family: monospace\">menino</span>",
		"response": " ",
		"trial": "exp-sent",
		"word": "menino",
		"trial_type": "html-keyboard-response",
		"trial_index": 307,
		"time_elapsed": 717695,
		"internal_node_id": "0.0-3.0-1.248"
	},
	{
		"rt": 328,
		"stimulus": "<span style=\"font-size:30px; font-family: monospace\">quebrou</span>",
		"response": " ",
		"trial": "exp-sent",
		"word": "quebrou",
		"trial_type": "html-keyboard-response",
		"trial_index": 308,
		"time_elapsed": 718275,
		"internal_node_id": "0.0-3.0-1.249"
	},
	{
		"rt": 821,
		"stimulus": "<span style=\"font-size:30px; font-family: monospace\">a</span>",
		"response": " ",
		"trial": "exp-sent",
		"word": "a",
		"trial_type": "html-keyboard-response",
		"trial_index": 309,
		"time_elapsed": 719347,
		"internal_node_id": "0.0-3.0-1.250"
	},
	{
		"rt": 463,
		"stimulus": "<span style=\"font-size:30px; font-family: monospace\">perna</span>",
		"response": " ",
		"trial": "exp-sent",
		"word": "perna",
		"trial_type": "html-keyboard-response",
		"trial_index": 310,
		"time_elapsed": 720061,
		"internal_node_id": "0.0-3.0-1.251"
	},
	{
		"rt": 415,
		"stimulus": "<span style=\"font-size:30px; font-family: monospace\">nos</span>",
		"response": " ",
		"trial": "exp-sent",
		"word": "nos",
		"trial_type": "html-keyboard-response",
		"trial_index": 311,
		"time_elapsed": 720727,
		"internal_node_id": "0.0-3.0-1.252"
	},
	{
		"rt": 776,
		"stimulus": "<span style=\"font-size:30px; font-family: monospace\">esportes.</span>",
		"response": " ",
		"trial": "exp-sent",
		"word": "esportes.",
		"trial_type": "html-keyboard-response",
		"trial_index": 312,
		"time_elapsed": 721755,
		"internal_node_id": "0.0-3.0-1.253"
	},
	{
		"rt": null,
		"stimulus": "<span style= \"font-size:30px; font-family: monospace\">+</span>",
		"response": null,
		"trial_part": "fixation",
		"trial_type": "html-keyboard-response",
		"trial_index": 313,
		"time_elapsed": 723007,
		"internal_node_id": "0.0-3.0-0.254-0.254"
	},
	{
		"rt": 558,
		"stimulus": "<span style=\"font-size:30px; font-family: monospace\">Ela</span>",
		"response": " ",
		"trial": "exp-sent",
		"word": "Ela",
		"trial_type": "html-keyboard-response",
		"trial_index": 314,
		"time_elapsed": 723816,
		"internal_node_id": "0.0-3.0-1.254"
	},
	{
		"rt": 866,
		"stimulus": "<span style=\"font-size:30px; font-family: monospace\">brincou</span>",
		"response": " ",
		"trial": "exp-sent",
		"word": "brincou",
		"trial_type": "html-keyboard-response",
		"trial_index": 315,
		"time_elapsed": 724934,
		"internal_node_id": "0.0-3.0-1.255"
	},
	{
		"rt": 432,
		"stimulus": "<span style=\"font-size:30px; font-family: monospace\">com</span>",
		"response": " ",
		"trial": "exp-sent",
		"word": "com",
		"trial_type": "html-keyboard-response",
		"trial_index": 316,
		"time_elapsed": 725618,
		"internal_node_id": "0.0-3.0-1.256"
	},
	{
		"rt": 531,
		"stimulus": "<span style=\"font-size:30px; font-family: monospace\">uma</span>",
		"response": " ",
		"trial": "exp-sent",
		"word": "uma",
		"trial_type": "html-keyboard-response",
		"trial_index": 317,
		"time_elapsed": 726401,
		"internal_node_id": "0.0-3.0-1.257"
	},
	{
		"rt": 595,
		"stimulus": "<span style=\"font-size:30px; font-family: monospace\">menina</span>",
		"response": " ",
		"trial": "exp-sent",
		"word": "menina",
		"trial_type": "html-keyboard-response",
		"trial_index": 318,
		"time_elapsed": 727246,
		"internal_node_id": "0.0-3.0-1.258"
	},
	{
		"rt": 418,
		"stimulus": "<span style=\"font-size:30px; font-family: monospace\">da</span>",
		"response": " ",
		"trial": "exp-sent",
		"word": "da",
		"trial_type": "html-keyboard-response",
		"trial_index": 319,
		"time_elapsed": 727916,
		"internal_node_id": "0.0-3.0-1.259"
	},
	{
		"rt": 497,
		"stimulus": "<span style=\"font-size:30px; font-family: monospace\">turma.</span>",
		"response": " ",
		"trial": "exp-sent",
		"word": "turma.",
		"trial_type": "html-keyboard-response",
		"trial_index": 320,
		"time_elapsed": 728663,
		"internal_node_id": "0.0-3.0-1.260"
	},
	{
		"rt": null,
		"stimulus": "<span style= \"font-size:30px; font-family: monospace\">+</span>",
		"response": null,
		"trial_part": "fixation",
		"trial_type": "html-keyboard-response",
		"trial_index": 321,
		"time_elapsed": 729915,
		"internal_node_id": "0.0-3.0-0.261-0.261"
	},
	{
		"rt": 686,
		"stimulus": "<span style=\"font-size:30px; font-family: monospace\">Ele</span>",
		"response": " ",
		"trial": "exp-sent",
		"word": "Ele",
		"trial_type": "html-keyboard-response",
		"trial_index": 322,
		"time_elapsed": 730853,
		"internal_node_id": "0.0-3.0-1.261"
	},
	{
		"rt": 622,
		"stimulus": "<span style=\"font-size:30px; font-family: monospace\">esteve</span>",
		"response": " ",
		"trial": "exp-sent",
		"word": "esteve",
		"trial_type": "html-keyboard-response",
		"trial_index": 323,
		"time_elapsed": 731727,
		"internal_node_id": "0.0-3.0-1.262"
	},
	{
		"rt": 478,
		"stimulus": "<span style=\"font-size:30px; font-family: monospace\">no</span>",
		"response": " ",
		"trial": "exp-sent",
		"word": "no",
		"trial_type": "html-keyboard-response",
		"trial_index": 324,
		"time_elapsed": 732458,
		"internal_node_id": "0.0-3.0-1.263"
	},
	{
		"rt": 981,
		"stimulus": "<span style=\"font-size:30px; font-family: monospace\">escritório</span>",
		"response": " ",
		"trial": "exp-sent",
		"word": "escritório",
		"trial_type": "html-keyboard-response",
		"trial_index": 325,
		"time_elapsed": 733690,
		"internal_node_id": "0.0-3.0-1.264"
	},
	{
		"rt": 430,
		"stimulus": "<span style=\"font-size:30px; font-family: monospace\">o</span>",
		"response": " ",
		"trial": "exp-sent",
		"word": "o",
		"trial_type": "html-keyboard-response",
		"trial_index": 326,
		"time_elapsed": 734372,
		"internal_node_id": "0.0-3.0-1.265"
	},
	{
		"rt": 506,
		"stimulus": "<span style=\"font-size:30px; font-family: monospace\">dia</span>",
		"response": " ",
		"trial": "exp-sent",
		"word": "dia",
		"trial_type": "html-keyboard-response",
		"trial_index": 327,
		"time_elapsed": 735130,
		"internal_node_id": "0.0-3.0-1.266"
	},
	{
		"rt": 508,
		"stimulus": "<span style=\"font-size:30px; font-family: monospace\">inteiro.</span>",
		"response": " ",
		"trial": "comp",
		"word": "inteiro.",
		"trial_type": "html-keyboard-response",
		"trial_index": 328,
		"time_elapsed": 735890,
		"internal_node_id": "0.0-3.0-1.267"
	},
	{
		"rt": 2777,
		"stimulus": "<span style=\"font-size:30px; font-family: monospace\">Ele esteve no parque o dia inteiro?</span>",
		"response": "n",
		"question": "Ele esteve no parque o dia inteiro?",
		"answer": "não",
		"trial": "comp",
		"trial_type": "html-keyboard-response",
		"trial_index": 329,
		"time_elapsed": 738918,
		"internal_node_id": "0.0-3.0-2.267-0.267",
		"accuracy": false
	},
	{
		"rt": null,
		"stimulus": "<span style= \"font-size:30px; font-family: monospace\">+</span>",
		"response": null,
		"trial_part": "fixation",
		"trial_type": "html-keyboard-response",
		"trial_index": 330,
		"time_elapsed": 740420,
		"internal_node_id": "0.0-3.0-0.268-0.268"
	},
	{
		"rt": 404,
		"stimulus": "<span style=\"font-size:30px; font-family: monospace\">As</span>",
		"response": " ",
		"trial": "exp-sent",
		"word": "As",
		"trial_type": "html-keyboard-response",
		"trial_index": 331,
		"time_elapsed": 741077,
		"internal_node_id": "0.0-3.0-1.268"
	},
	{
		"rt": 181,
		"stimulus": "<span style=\"font-size:30px; font-family: monospace\">crianças</span>",
		"response": " ",
		"trial": "exp-sent",
		"word": "crianças",
		"trial_type": "html-keyboard-response",
		"trial_index": 332,
		"time_elapsed": 741509,
		"internal_node_id": "0.0-3.0-1.269"
	},
	{
		"rt": 110,
		"stimulus": "<span style=\"font-size:30px; font-family: monospace\">viram</span>",
		"response": " ",
		"trial": "exp-sent",
		"word": "viram",
		"trial_type": "html-keyboard-response",
		"trial_index": 333,
		"time_elapsed": 741870,
		"internal_node_id": "0.0-3.0-1.270"
	},
	{
		"rt": 113,
		"stimulus": "<span style=\"font-size:30px; font-family: monospace\">um</span>",
		"response": " ",
		"trial": "exp-sent",
		"word": "um",
		"trial_type": "html-keyboard-response",
		"trial_index": 334,
		"time_elapsed": 742234,
		"internal_node_id": "0.0-3.0-1.271"
	},
	{
		"rt": 98,
		"stimulus": "<span style=\"font-size:30px; font-family: monospace\">vaga-lume</span>",
		"response": " ",
		"trial": "exp-sent",
		"word": "vaga-lume",
		"trial_type": "html-keyboard-response",
		"trial_index": 335,
		"time_elapsed": 742583,
		"internal_node_id": "0.0-3.0-1.272"
	},
	{
		"rt": 68,
		"stimulus": "<span style=\"font-size:30px; font-family: monospace\">nos</span>",
		"response": " ",
		"trial": "exp-sent",
		"word": "nos",
		"trial_type": "html-keyboard-response",
		"trial_index": 336,
		"time_elapsed": 742902,
		"internal_node_id": "0.0-3.0-1.273"
	},
	{
		"rt": 124,
		"stimulus": "<span style=\"font-size:30px; font-family: monospace\">arbustos.</span>",
		"response": " ",
		"trial": "exp-sent",
		"word": "arbustos.",
		"trial_type": "html-keyboard-response",
		"trial_index": 337,
		"time_elapsed": 743277,
		"internal_node_id": "0.0-3.0-1.274"
	},
	{
		"rt": null,
		"stimulus": "<span style= \"font-size:30px; font-family: monospace\">+</span>",
		"response": null,
		"trial_part": "fixation",
		"trial_type": "html-keyboard-response",
		"trial_index": 338,
		"time_elapsed": 744529,
		"internal_node_id": "0.0-3.0-0.275-0.275"
	},
	{
		"rt": 158,
		"stimulus": "<span style=\"font-size:30px; font-family: monospace\">Ontem</span>",
		"response": " ",
		"trial": "exp-sent",
		"word": "Ontem",
		"trial_type": "html-keyboard-response",
		"trial_index": 339,
		"time_elapsed": 744939,
		"internal_node_id": "0.0-3.0-1.275"
	},
	{
		"rt": 129,
		"stimulus": "<span style=\"font-size:30px; font-family: monospace\">o</span>",
		"response": " ",
		"trial": "exp-sent",
		"word": "o",
