"view_history","rt","trial_type","trial_index","time_elapsed","internal_node_id","stimulus","response","trial_part","trial","word","question","answer","accuracy"
"[{""page_index"":0,""viewing_time"":44010},{""page_index"":1,""viewing_time"":75590}]","119601","instructions","0","119608","0.0-0.0","","","","","","","",""
"","null","html-keyboard-response","1","120712","0.0-1.0-0.0-0.0","<span style= ""font-size:30px; font-family: monospace"">+</span>","null","fixation","","","","",""
"","1191","html-keyboard-response","2","122154","0.0-1.0-1.0","<span style=""font-size:30px; font-family: monospace"">O</span>"," ","","prac-sent","O","","",""
"","757","html-keyboard-response","3","123166","0.0-1.0-1.1","<span style=""font-size:30px; font-family: monospace"">dia</span>"," ","","prac-sent","dia","","",""
"","912","html-keyboard-response","4","124330","0.0-1.0-1.2","<span style=""font-size:30px; font-family: monospace"">estará</span>"," ","","prac-sent","estará","","",""
"","790","html-keyboard-response","5","125371","0.0-1.0-1.3","<span style=""font-size:30px; font-family: monospace"">cheio</span>"," ","","prac-sent","cheio","","",""
"","608","html-keyboard-response","6","126230","0.0-1.0-1.4","<span style=""font-size:30px; font-family: monospace"">de</span>"," ","","prac-sent","de","","",""
"","573","html-keyboard-response","7","127055","0.0-1.0-1.5","<span style=""font-size:30px; font-family: monospace"">nuvens</span>"," ","","prac-sent","nuvens","","",""
"","1070","html-keyboard-response","8","128377","0.0-1.0-1.6","<span style=""font-size:30px; font-family: monospace"">hoje.</span>"," ","","prac-sent","hoje.","","",""
"","null","html-keyboard-response","9","129629","0.0-1.0-0.7-0.7","<span style= ""font-size:30px; font-family: monospace"">+</span>","null","fixation","","","","",""
"","803","html-keyboard-response","10","130684","0.0-1.0-1.7","<span style=""font-size:30px; font-family: monospace"">A</span>"," ","","prac-sent","A","","",""
"","1069","html-keyboard-response","11","132003","0.0-1.0-1.8","<span style=""font-size:30px; font-family: monospace"">caneca</span>"," ","","prac-sent","caneca","","",""
"","911","html-keyboard-response","12","133165","0.0-1.0-1.9","<span style=""font-size:30px; font-family: monospace"">colorida</span>"," ","","prac-sent","colorida","","",""
"","587","html-keyboard-response","13","134003","0.0-1.0-1.10","<span style=""font-size:30px; font-family: monospace"">caiu</span>"," ","","prac-sent","caiu","","",""
"","457","html-keyboard-response","14","134718","0.0-1.0-1.11","<span style=""font-size:30px; font-family: monospace"">da</span>"," ","","prac-sent","da","","",""
"","433","html-keyboard-response","15","135401","0.0-1.0-1.12","<span style=""font-size:30px; font-family: monospace"">mesa</span>"," ","","prac-sent","mesa","","",""
"","682","html-keyboard-response","16","136335","0.0-1.0-1.13","<span style=""font-size:30px; font-family: monospace"">de</span>"," ","","prac-sent","de","","",""
"","973","html-keyboard-response","17","137559","0.0-1.0-1.14","<span style=""font-size:30px; font-family: monospace"">jantar.</span>"," ","","prac-comp","jantar.","","",""
"","25702","html-keyboard-response","18","163512","0.0-1.0-2.14-0.14","<span style=""font-size:30px; font-family: monospace"">A caneca permaneceu na mesa?</span>","n","","prac-comp","","A caneca permaneceu na mesa?","não","false"
"[{""page_index"":0,""viewing_time"":53273}]","53273","instructions","19","217286","0.0-2.0","","","","","","","",""
"","null","html-keyboard-response","20","218388","0.0-3.0-0.0-0.0","<span style= ""font-size:30px; font-family: monospace"">+</span>","null","fixation","","","","",""
"","138","html-keyboard-response","21","218777","0.0-3.0-1.0","<span style=""font-size:30px; font-family: monospace"">Ursos</span>"," ","","exp-sent","Ursos","","",""
"","628","html-keyboard-response","22","219656","0.0-3.0-1.1","<span style=""font-size:30px; font-family: monospace"">têm</span>"," ","","exp-sent","têm","","",""
"","579","html-keyboard-response","23","220486","0.0-3.0-1.2","<span style=""font-size:30px; font-family: monospace"">uma</span>"," ","","exp-sent","uma","","",""
"","527","html-keyboard-response","24","221265","0.0-3.0-1.3","<span style=""font-size:30px; font-family: monospace"">patada</span>"," ","","exp-sent","patada","","",""
"","607","html-keyboard-response","25","222123","0.0-3.0-1.4","<span style=""font-size:30px; font-family: monospace"">brutal</span>"," ","","exp-sent","brutal","","",""
"","535","html-keyboard-response","26","222910","0.0-3.0-1.5","<span style=""font-size:30px; font-family: monospace"">e</span>"," ","","exp-sent","e","","",""
"","940","html-keyboard-response","27","224106","0.0-3.0-1.6","<span style=""font-size:30px; font-family: monospace"">poderosa.</span>"," ","","exp-sent","poderosa.","","",""
"","null","html-keyboard-response","28","225358","0.0-3.0-0.7-0.7","<span style= ""font-size:30px; font-family: monospace"">+</span>","null","fixation","","","","",""
"","685","html-keyboard-response","29","226294","0.0-3.0-1.7","<span style=""font-size:30px; font-family: monospace"">Eu</span>"," ","","exp-sent","Eu","","",""
"","408","html-keyboard-response","30","226953","0.0-3.0-1.8","<span style=""font-size:30px; font-family: monospace"">fiz</span>"," ","","exp-sent","fiz","","",""
"","367","html-keyboard-response","31","227571","0.0-3.0-1.9","<span style=""font-size:30px; font-family: monospace"">aulas</span>"," ","","exp-sent","aulas","","",""
"","387","html-keyboard-response","32","228209","0.0-3.0-1.10","<span style=""font-size:30px; font-family: monospace"">de</span>"," ","","exp-sent","de","","",""
"","944","html-keyboard-response","33","229404","0.0-3.0-1.11","<span style=""font-size:30px; font-family: monospace"">espanhol</span>"," ","","exp-sent","espanhol","","",""
"","535","html-keyboard-response","34","230190","0.0-3.0-1.12","<span style=""font-size:30px; font-family: monospace"">nesta</span>"," ","","exp-sent","nesta","","",""
"","628","html-keyboard-response","35","231069","0.0-3.0-1.13","<span style=""font-size:30px; font-family: monospace"">cidade.</span>"," ","","exp-sent","cidade.","","",""
"","null","html-keyboard-response","36","232321","0.0-3.0-0.14-0.14","<span style= ""font-size:30px; font-family: monospace"">+</span>","null","fixation","","","","",""
"","607","html-keyboard-response","37","233179","0.0-3.0-1.14","<span style=""font-size:30px; font-family: monospace"">Ele</span>"," ","","exp-sent","Ele","","",""
"","932","html-keyboard-response","38","234362","0.0-3.0-1.15","<span style=""font-size:30px; font-family: monospace"">comprou</span>"," ","","exp-sent","comprou","","",""
"","767","html-keyboard-response","39","235380","0.0-3.0-1.16","<span style=""font-size:30px; font-family: monospace"">mais</span>"," ","","exp-sent","mais","","",""
"","592","html-keyboard-response","40","236224","0.0-3.0-1.17","<span style=""font-size:30px; font-family: monospace"">uma</span>"," ","","exp-sent","uma","","",""
"","1263","html-keyboard-response","41","237738","0.0-3.0-1.18","<span style=""font-size:30px; font-family: monospace"">esponja</span>"," ","","exp-sent","esponja","","",""
"","531","html-keyboard-response","42","238522","0.0-3.0-1.19","<span style=""font-size:30px; font-family: monospace"">para</span>"," ","","exp-sent","para","","",""
"","514","html-keyboard-response","43","239287","0.0-3.0-1.20","<span style=""font-size:30px; font-family: monospace"">a</span>"," ","","exp-sent","a","","",""
"","651","html-keyboard-response","44","240194","0.0-3.0-1.21","<span style=""font-size:30px; font-family: monospace"">cozinha.</span>"," ","","exp-sent","cozinha.","","",""
"","null","html-keyboard-response","45","241446","0.0-3.0-0.22-0.22","<span style= ""font-size:30px; font-family: monospace"">+</span>","null","fixation","","","","",""
"","482","html-keyboard-response","46","242203","0.0-3.0-1.22","<span style=""font-size:30px; font-family: monospace"">Ele</span>"," ","","exp-sent","Ele","","",""
"","374","html-keyboard-response","47","242827","0.0-3.0-1.23","<span style=""font-size:30px; font-family: monospace"">teve</span>"," ","","exp-sent","teve","","",""
"","456","html-keyboard-response","48","243539","0.0-3.0-1.24","<span style=""font-size:30px; font-family: monospace"">um</span>"," ","","exp-sent","um","","",""
"","329","html-keyboard-response","49","244120","0.0-3.0-1.25","<span style=""font-size:30px; font-family: monospace"">sono</span>"," ","","exp-sent","sono","","",""
"","875","html-keyboard-response","50","245246","0.0-3.0-1.26","<span style=""font-size:30px; font-family: monospace"">bizarro</span>"," ","","exp-sent","bizarro","","",""
"","387","html-keyboard-response","51","245884","0.0-3.0-1.27","<span style=""font-size:30px; font-family: monospace"">sem</span>"," ","","exp-sent","sem","","",""
"","472","html-keyboard-response","52","246607","0.0-3.0-1.28","<span style=""font-size:30px; font-family: monospace"">nenhum</span>"," ","","exp-sent","nenhum","","",""
"","422","html-keyboard-response","53","247283","0.0-3.0-1.29","<span style=""font-size:30px; font-family: monospace"">motivo.</span>"," ","","exp-sent","motivo.","","",""
"","null","html-keyboard-response","54","248537","0.0-3.0-0.30-0.30","<span style= ""font-size:30px; font-family: monospace"">+</span>","null","fixation","","","","",""
"","1367","html-keyboard-response","55","250155","0.0-3.0-1.30","<span style=""font-size:30px; font-family: monospace"">A</span>"," ","","exp-sent","A","","",""
"","562","html-keyboard-response","56","250968","0.0-3.0-1.31","<span style=""font-size:30px; font-family: monospace"">moça</span>"," ","","exp-sent","moça","","",""
"","360","html-keyboard-response","57","251580","0.0-3.0-1.32","<span style=""font-size:30px; font-family: monospace"">comprou</span>"," ","","exp-sent","comprou","","",""
"","296","html-keyboard-response","58","252126","0.0-3.0-1.33","<span style=""font-size:30px; font-family: monospace"">um</span>"," ","","exp-sent","um","","",""
"","746","html-keyboard-response","59","253123","0.0-3.0-1.34","<span style=""font-size:30px; font-family: monospace"">diamante</span>"," ","","exp-sent","diamante","","",""
"","397","html-keyboard-response","60","253771","0.0-3.0-1.35","<span style=""font-size:30px; font-family: monospace"">para</span>"," ","","exp-sent","para","","",""
"","356","html-keyboard-response","61","254379","0.0-3.0-1.36","<span style=""font-size:30px; font-family: monospace"">sua</span>"," ","","exp-sent","sua","","",""
"","409","html-keyboard-response","62","255039","0.0-3.0-1.37","<span style=""font-size:30px; font-family: monospace"">prima.</span>"," ","","comp","prima.","","",""
"","43112","html-keyboard-response","63","298402","0.0-3.0-2.37-0.37","<span style=""font-size:30px; font-family: monospace"">A moça comprou um diamante?</span>","s","","comp","","A moça comprou um diamante?","sim","false"
"","null","html-keyboard-response","64","299903","0.0-3.0-0.38-0.38","<span style= ""font-size:30px; font-family: monospace"">+</span>","null","fixation","","","","",""
"","11298","html-keyboard-response","65","311453","0.0-3.0-1.38","<span style=""font-size:30px; font-family: monospace"">Ganhamos</span>"," ","","exp-sent","Ganhamos","","",""
"","714","html-keyboard-response","66","312418","0.0-3.0-1.39","<span style=""font-size:30px; font-family: monospace"">passagem</span>"," ","","exp-sent","passagem","","",""
"","392","html-keyboard-response","67","313061","0.0-3.0-1.40","<span style=""font-size:30px; font-family: monospace"">para</span>"," ","","exp-sent","para","","",""
"","421","html-keyboard-response","68","313734","0.0-3.0-1.41","<span style=""font-size:30px; font-family: monospace"">uma</span>"," ","","exp-sent","uma","","",""
"","552","html-keyboard-response","69","314537","0.0-3.0-1.42","<span style=""font-size:30px; font-family: monospace"">viagem</span>"," ","","exp-sent","viagem","","",""
"","538","html-keyboard-response","70","315327","0.0-3.0-1.43","<span style=""font-size:30px; font-family: monospace"">de</span>"," ","","exp-sent","de","","",""
"","627","html-keyboard-response","71","316208","0.0-3.0-1.44","<span style=""font-size:30px; font-family: monospace"">férias.</span>"," ","","exp-sent","férias.","","",""
"","null","html-keyboard-response","72","317459","0.0-3.0-0.45-0.45","<span style= ""font-size:30px; font-family: monospace"">+</span>","null","fixation","","","","",""
"","515","html-keyboard-response","73","318231","0.0-3.0-1.45","<span style=""font-size:30px; font-family: monospace"">Caiu</span>"," ","","exp-sent","Caiu","","",""
"","375","html-keyboard-response","74","318857","0.0-3.0-1.46","<span style=""font-size:30px; font-family: monospace"">algo</span>"," ","","exp-sent","algo","","",""
"","328","html-keyboard-response","75","319437","0.0-3.0-1.47","<span style=""font-size:30px; font-family: monospace"">no</span>"," ","","exp-sent","no","","",""
"","398","html-keyboard-response","76","320085","0.0-3.0-1.48","<span style=""font-size:30px; font-family: monospace"">meu</span>"," ","","exp-sent","meu","","",""
"","389","html-keyboard-response","77","320735","0.0-3.0-1.49","<span style=""font-size:30px; font-family: monospace"">olho</span>"," ","","exp-sent","olho","","",""
"","370","html-keyboard-response","78","321357","0.0-3.0-1.50","<span style=""font-size:30px; font-family: monospace"">ontem</span>"," ","","exp-sent","ontem","","",""
"","528","html-keyboard-response","79","322136","0.0-3.0-1.51","<span style=""font-size:30px; font-family: monospace"">de</span>"," ","","exp-sent","de","","",""
"","422","html-keyboard-response","80","322810","0.0-3.0-1.52","<span style=""font-size:30px; font-family: monospace"">tarde.</span>"," ","","exp-sent","tarde.","","",""
"","null","html-keyboard-response","81","324064","0.0-3.0-0.53-0.53","<span style= ""font-size:30px; font-family: monospace"">+</span>","null","fixation","","","","",""
"","616","html-keyboard-response","82","324932","0.0-3.0-1.53","<span style=""font-size:30px; font-family: monospace"">Não</span>"," ","","exp-sent","Não","","",""
"","561","html-keyboard-response","83","325745","0.0-3.0-1.54","<span style=""font-size:30px; font-family: monospace"">havia</span>"," ","","exp-sent","havia","","",""
"","373","html-keyboard-response","84","326369","0.0-3.0-1.55","<span style=""font-size:30px; font-family: monospace"">mais</span>"," ","","exp-sent","mais","","",""
"","346","html-keyboard-response","85","326966","0.0-3.0-1.56","<span style=""font-size:30px; font-family: monospace"">nenhum</span>"," ","","exp-sent","nenhum","","",""
"","373","html-keyboard-response","86","327590","0.0-3.0-1.57","<span style=""font-size:30px; font-family: monospace"">ingresso</span>"," ","","exp-sent","ingresso","","",""
"","399","html-keyboard-response","87","328240","0.0-3.0-1.58","<span style=""font-size:30px; font-family: monospace"">para</span>"," ","","exp-sent","para","","",""
"","561","html-keyboard-response","88","329052","0.0-3.0-1.59","<span style=""font-size:30px; font-family: monospace"">o</span>"," ","","exp-sent","o","","",""
"","426","html-keyboard-response","89","329729","0.0-3.0-1.60","<span style=""font-size:30px; font-family: monospace"">evento.</span>"," ","","exp-sent","evento.","","",""
"","null","html-keyboard-response","90","330981","0.0-3.0-0.61-0.61","<span style= ""font-size:30px; font-family: monospace"">+</span>","null","fixation","","","","",""
"","427","html-keyboard-response","91","331659","0.0-3.0-1.61","<span style=""font-size:30px; font-family: monospace"">A</span>"," ","","exp-sent","A","","",""
"","393","html-keyboard-response","92","332304","0.0-3.0-1.62","<span style=""font-size:30px; font-family: monospace"">médica</span>"," ","","exp-sent","médica","","",""
"","353","html-keyboard-response","93","332908","0.0-3.0-1.63","<span style=""font-size:30px; font-family: monospace"">descobriu</span>"," ","","exp-sent","descobriu","","",""
"","407","html-keyboard-response","94","333566","0.0-3.0-1.64","<span style=""font-size:30px; font-family: monospace"">uma</span>"," ","","exp-sent","uma","","",""
"","408","html-keyboard-response","95","334226","0.0-3.0-1.65","<span style=""font-size:30px; font-family: monospace"">cura</span>"," ","","exp-sent","cura","","",""
"","584","html-keyboard-response","96","335062","0.0-3.0-1.66","<span style=""font-size:30px; font-family: monospace"">para</span>"," ","","exp-sent","para","","",""
"","300","html-keyboard-response","97","335612","0.0-3.0-1.67","<span style=""font-size:30px; font-family: monospace"">a</span>"," ","","exp-sent","a","","",""
"","492","html-keyboard-response","98","336356","0.0-3.0-1.68","<span style=""font-size:30px; font-family: monospace"">doença.</span>"," ","","exp-sent","doença.","","",""
"","null","html-keyboard-response","99","337609","0.0-3.0-0.69-0.69","<span style= ""font-size:30px; font-family: monospace"">+</span>","null","fixation","","","","",""
"","541","html-keyboard-response","100","338401","0.0-3.0-1.69","<span style=""font-size:30px; font-family: monospace"">O</span>"," ","","exp-sent","O","","",""
"","379","html-keyboard-response","101","339031","0.0-3.0-1.70","<span style=""font-size:30px; font-family: monospace"">menino</span>"," ","","exp-sent","menino","","",""
"","504","html-keyboard-response","102","339786","0.0-3.0-1.71","<span style=""font-size:30px; font-family: monospace"">riscou</span>"," ","","exp-sent","riscou","","",""
"","409","html-keyboard-response","103","340445","0.0-3.0-1.72","<span style=""font-size:30px; font-family: monospace"">o</span>"," ","","exp-sent","o","","",""
"","229","html-keyboard-response","104","340926","0.0-3.0-1.73","<span style=""font-size:30px; font-family: monospace"">caderno</span>"," ","","exp-sent","caderno","","",""
"","538","html-keyboard-response","105","341715","0.0-3.0-1.74","<span style=""font-size:30px; font-family: monospace"">com</span>"," ","","exp-sent","com","","",""
"","525","html-keyboard-response","106","342491","0.0-3.0-1.75","<span style=""font-size:30px; font-family: monospace"">a</span>"," ","","exp-sent","a","","",""
"","398","html-keyboard-response","107","343140","0.0-3.0-1.76","<span style=""font-size:30px; font-family: monospace"">caneta.</span>"," ","","comp","caneta.","","",""
"","3589","html-keyboard-response","108","346980","0.0-3.0-2.76-0.76","<span style=""font-size:30px; font-family: monospace"">O menino riscou a parede com a caneta?</span>","n","","comp","","O menino riscou a parede com a caneta?","não","false"
"","null","html-keyboard-response","109","348482","0.0-3.0-0.77-0.77","<span style= ""font-size:30px; font-family: monospace"">+</span>","null","fixation","","","","",""
"","170555","html-keyboard-response","110","519290","0.0-3.0-1.77","<span style=""font-size:30px; font-family: monospace"">Este</span>"," ","","exp-sent","Este","","",""
"","625","html-keyboard-response","111","520167","0.0-3.0-1.78","<span style=""font-size:30px; font-family: monospace"">conto</span>"," ","","exp-sent","conto","","",""
"","518","html-keyboard-response","112","520937","0.0-3.0-1.79","<span style=""font-size:30px; font-family: monospace"">tem</span>"," ","","exp-sent","tem","","",""
"","440","html-keyboard-response","113","521629","0.0-3.0-1.80","<span style=""font-size:30px; font-family: monospace"">um</span>"," ","","exp-sent","um","","",""
"","660","html-keyboard-response","114","522540","0.0-3.0-1.81","<span style=""font-size:30px; font-family: monospace"">final</span>"," ","","exp-sent","final","","",""
"","1221","html-keyboard-response","115","524012","0.0-3.0-1.82","<span style=""font-size:30px; font-family: monospace"">perfeito.</span>"," ","","exp-sent","perfeito.","","",""
"","null","html-keyboard-response","116","525264","0.0-3.0-0.83-0.83","<span style= ""font-size:30px; font-family: monospace"">+</span>","null","fixation","","","","",""
"","610","html-keyboard-response","117","526126","0.0-3.0-1.83","<span style=""font-size:30px; font-family: monospace"">Ele</span>"," ","","exp-sent","Ele","","",""
"","649","html-keyboard-response","118","527026","0.0-3.0-1.84","<span style=""font-size:30px; font-family: monospace"">precisa</span>"," ","","exp-sent","precisa","","",""
"","462","html-keyboard-response","119","527740","0.0-3.0-1.85","<span style=""font-size:30px; font-family: monospace"">de</span>"," ","","exp-sent","de","","",""
"","355","html-keyboard-response","120","528374","0.0-3.0-1.86","<span style=""font-size:30px; font-family: monospace"">um</span>"," ","","exp-sent","um","","",""
"","917","html-keyboard-response","121","529543","0.0-3.0-1.87","<span style=""font-size:30px; font-family: monospace"">protetor</span>"," ","","exp-sent","protetor","","",""
"","441","html-keyboard-response","122","530235","0.0-3.0-1.88","<span style=""font-size:30px; font-family: monospace"">de</span>"," ","","exp-sent","de","","",""
"","450","html-keyboard-response","123","530937","0.0-3.0-1.89","<span style=""font-size:30px; font-family: monospace"">ouvido.</span>"," ","","exp-sent","ouvido.","","",""
"","null","html-keyboard-response","124","532188","0.0-3.0-0.90-0.90","<span style= ""font-size:30px; font-family: monospace"">+</span>","null","fixation","","","","",""
"","480","html-keyboard-response","125","532919","0.0-3.0-1.90","<span style=""font-size:30px; font-family: monospace"">Os</span>"," ","","exp-sent","Os","","",""
"","632","html-keyboard-response","126","533803","0.0-3.0-1.91","<span style=""font-size:30px; font-family: monospace"">hábitos</span>"," ","","exp-sent","hábitos","","",""
"","449","html-keyboard-response","127","534504","0.0-3.0-1.92","<span style=""font-size:30px; font-family: monospace"">de</span>"," ","","exp-sent","de","","",""
"","677","html-keyboard-response","128","535432","0.0-3.0-1.93","<span style=""font-size:30px; font-family: monospace"">lugares</span>"," ","","exp-sent","lugares","","",""
"","642","html-keyboard-response","129","536325","0.0-3.0-1.94","<span style=""font-size:30px; font-family: monospace"">diferentes</span>"," ","","exp-sent","diferentes","","",""
"","493","html-keyboard-response","130","537069","0.0-3.0-1.95","<span style=""font-size:30px; font-family: monospace"">são</span>"," ","","exp-sent","são","","",""
"","422","html-keyboard-response","131","537742","0.0-3.0-1.96","<span style=""font-size:30px; font-family: monospace"">muito</span>"," ","","exp-sent","muito","","",""
"","491","html-keyboard-response","132","538484","0.0-3.0-1.97","<span style=""font-size:30px; font-family: monospace"">lindos.</span>"," ","","exp-sent","lindos.","","",""
"","null","html-keyboard-response","133","539737","0.0-3.0-0.98-0.98","<span style= ""font-size:30px; font-family: monospace"">+</span>","null","fixation","","","","",""
"","695","html-keyboard-response","134","540683","0.0-3.0-1.98","<span style=""font-size:30px; font-family: monospace"">O</span>"," ","","exp-sent","O","","",""
"","516","html-keyboard-response","135","541449","0.0-3.0-1.99","<span style=""font-size:30px; font-family: monospace"">médico</span>"," ","","exp-sent","médico","","",""
"","926","html-keyboard-response","136","542626","0.0-3.0-1.100","<span style=""font-size:30px; font-family: monospace"">corrigiu</span>"," ","","exp-sent","corrigiu","","",""
"","576","html-keyboard-response","137","543457","0.0-3.0-1.101","<span style=""font-size:30px; font-family: monospace"">a</span>"," ","","exp-sent","a","","",""
"","644","html-keyboard-response","138","544354","0.0-3.0-1.102","<span style=""font-size:30px; font-family: monospace"">postura</span>"," ","","exp-sent","postura","","",""
"","448","html-keyboard-response","139","545055","0.0-3.0-1.103","<span style=""font-size:30px; font-family: monospace"">das</span>"," ","","exp-sent","das","","",""
"","707","html-keyboard-response","140","546013","0.0-3.0-1.104","<span style=""font-size:30px; font-family: monospace"">costas</span>"," ","","exp-sent","costas","","",""
"","630","html-keyboard-response","141","546899","0.0-3.0-1.105","<span style=""font-size:30px; font-family: monospace"">da</span>"," ","","exp-sent","da","","",""
"","660","html-keyboard-response","142","547811","0.0-3.0-1.106","<span style=""font-size:30px; font-family: monospace"">pessoa.</span>"," ","","exp-sent","pessoa.","","",""
"","null","html-keyboard-response","143","549069","0.0-3.0-0.107-0.107","<span style= ""font-size:30px; font-family: monospace"">+</span>","null","fixation","","","","",""
"","585","html-keyboard-response","144","549908","0.0-3.0-1.107","<span style=""font-size:30px; font-family: monospace"">Aquele</span>"," ","","exp-sent","Aquele","","",""
"","433","html-keyboard-response","145","550593","0.0-3.0-1.108","<span style=""font-size:30px; font-family: monospace"">era</span>"," ","","exp-sent","era","","",""
"","599","html-keyboard-response","146","551443","0.0-3.0-1.109","<span style=""font-size:30px; font-family: monospace"">um</span>"," ","","exp-sent","um","","",""
"","400","html-keyboard-response","147","552099","0.0-3.0-1.110","<span style=""font-size:30px; font-family: monospace"">caso</span>"," ","","exp-sent","caso","","",""
"","390","html-keyboard-response","148","552740","0.0-3.0-1.111","<span style=""font-size:30px; font-family: monospace"">real</span>"," ","","exp-sent","real","","",""
"","573","html-keyboard-response","149","553565","0.0-3.0-1.112","<span style=""font-size:30px; font-family: monospace"">de</span>"," ","","exp-sent","de","","",""
"","737","html-keyboard-response","150","554553","0.0-3.0-1.113","<span style=""font-size:30px; font-family: monospace"">sequestro</span>"," ","","exp-sent","sequestro","","",""
"","842","html-keyboard-response","151","555647","0.0-3.0-1.114","<span style=""font-size:30px; font-family: monospace"">premeditado.</span>"," ","","comp","premeditado.","","",""
"","4507","html-keyboard-response","152","560405","0.0-3.0-2.114-0.114","<span style=""font-size:30px; font-family: monospace"">Aquele era um caso real de roubo?</span>","n","","comp","","Aquele era um caso real de roubo?","não","false"
"","null","html-keyboard-response","153","561909","0.0-3.0-0.115-0.115","<span style= ""font-size:30px; font-family: monospace"">+</span>","null","fixation","","","","",""
"","564","html-keyboard-response","154","562724","0.0-3.0-1.115","<span style=""font-size:30px; font-family: monospace"">Minha</span>"," ","","exp-sent","Minha","","",""
"","882","html-keyboard-response","155","563857","0.0-3.0-1.116","<span style=""font-size:30px; font-family: monospace"">prima</span>"," ","","exp-sent","prima","","",""
"","454","html-keyboard-response","156","564562","0.0-3.0-1.117","<span style=""font-size:30px; font-family: monospace"">trocou</span>"," ","","exp-sent","trocou","","",""
"","444","html-keyboard-response","157","565257","0.0-3.0-1.118","<span style=""font-size:30px; font-family: monospace"">a</span>"," ","","exp-sent","a","","",""
"","679","html-keyboard-response","158","566188","0.0-3.0-1.119","<span style=""font-size:30px; font-family: monospace"">tela</span>"," ","","exp-sent","tela","","",""
"","699","html-keyboard-response","159","567138","0.0-3.0-1.120","<span style=""font-size:30px; font-family: monospace"">do</span>"," ","","exp-sent","do","","",""
"","360","html-keyboard-response","160","567750","0.0-3.0-1.121","<span style=""font-size:30px; font-family: monospace"">celular</span>"," ","","exp-sent","celular","","",""
"","394","html-keyboard-response","161","568395","0.0-3.0-1.122","<span style=""font-size:30px; font-family: monospace"">duas</span>"," ","","exp-sent","duas","","",""
"","524","html-keyboard-response","162","569170","0.0-3.0-1.123","<span style=""font-size:30px; font-family: monospace"">vezes.</span>"," ","","exp-sent","vezes.","","",""
"","null","html-keyboard-response","163","570422","0.0-3.0-0.124-0.124","<span style= ""font-size:30px; font-family: monospace"">+</span>","null","fixation","","","","",""
"","607","html-keyboard-response","164","571280","0.0-3.0-1.124","<span style=""font-size:30px; font-family: monospace"">Agora</span>"," ","","exp-sent","Agora","","",""
"","465","html-keyboard-response","165","571997","0.0-3.0-1.125","<span style=""font-size:30px; font-family: monospace"">a</span>"," ","","exp-sent","a","","",""
"","439","html-keyboard-response","166","572695","0.0-3.0-1.126","<span style=""font-size:30px; font-family: monospace"">minha</span>"," ","","exp-sent","minha","","",""
"","484","html-keyboard-response","167","573430","0.0-3.0-1.127","<span style=""font-size:30px; font-family: monospace"">única</span>"," ","","exp-sent","única","","",""
"","556","html-keyboard-response","168","574237","0.0-3.0-1.128","<span style=""font-size:30px; font-family: monospace"">preocupação</span>"," ","","exp-sent","preocupação","","",""
"","509","html-keyboard-response","169","574997","0.0-3.0-1.129","<span style=""font-size:30px; font-family: monospace"">é</span>"," ","","exp-sent","é","","",""
"","511","html-keyboard-response","170","575761","0.0-3.0-1.130","<span style=""font-size:30px; font-family: monospace"">um</span>"," ","","exp-sent","um","","",""
"","665","html-keyboard-response","171","576677","0.0-3.0-1.131","<span style=""font-size:30px; font-family: monospace"">descanso</span>"," ","","exp-sent","descanso","","",""
"","595","html-keyboard-response","172","577524","0.0-3.0-1.132","<span style=""font-size:30px; font-family: monospace"">tranquilo.</span>"," ","","exp-sent","tranquilo.","","",""
"","null","html-keyboard-response","173","578776","0.0-3.0-0.133-0.133","<span style= ""font-size:30px; font-family: monospace"">+</span>","null","fixation","","","","",""
"","496","html-keyboard-response","174","579524","0.0-3.0-1.133","<span style=""font-size:30px; font-family: monospace"">A</span>"," ","","exp-sent","A","","",""
"","693","html-keyboard-response","175","580468","0.0-3.0-1.134","<span style=""font-size:30px; font-family: monospace"">criança</span>"," ","","exp-sent","criança","","",""
"","519","html-keyboard-response","176","581238","0.0-3.0-1.135","<span style=""font-size:30px; font-family: monospace"">ganhou</span>"," ","","exp-sent","ganhou","","",""
"","562","html-keyboard-response","177","582052","0.0-3.0-1.136","<span style=""font-size:30px; font-family: monospace"">um</span>"," ","","exp-sent","um","","",""
"","569","html-keyboard-response","178","582873","0.0-3.0-1.137","<span style=""font-size:30px; font-family: monospace"">presente</span>"," ","","exp-sent","presente","","",""
"","783","html-keyboard-response","179","583907","0.0-3.0-1.138","<span style=""font-size:30px; font-family: monospace"">maravilhoso.</span>"," ","","exp-sent","maravilhoso.","","",""
"","null","html-keyboard-response","180","585159","0.0-3.0-0.139-0.139","<span style= ""font-size:30px; font-family: monospace"">+</span>","null","fixation","","","","",""
"","500","html-keyboard-response","181","585911","0.0-3.0-1.139","<span style=""font-size:30px; font-family: monospace"">Os</span>"," ","","exp-sent","Os","","",""
"","478","html-keyboard-response","182","586640","0.0-3.0-1.140","<span style=""font-size:30px; font-family: monospace"">bichos</span>"," ","","exp-sent","bichos","","",""
"","412","html-keyboard-response","183","587303","0.0-3.0-1.141","<span style=""font-size:30px; font-family: monospace"">têm</span>"," ","","exp-sent","têm","","",""
"","411","html-keyboard-response","184","587965","0.0-3.0-1.142","<span style=""font-size:30px; font-family: monospace"">um</span>"," ","","exp-sent","um","","",""
"","785","html-keyboard-response","185","589001","0.0-3.0-1.143","<span style=""font-size:30px; font-family: monospace"">instinto</span>"," ","","exp-sent","instinto","","",""
"","453","html-keyboard-response","186","589705","0.0-3.0-1.144","<span style=""font-size:30px; font-family: monospace"">de</span>"," ","","exp-sent","de","","",""
"","1157","html-keyboard-response","187","591114","0.0-3.0-1.145","<span style=""font-size:30px; font-family: monospace"">sobrevivência</span>"," ","","exp-sent","sobrevivência","","",""
"","1588","html-keyboard-response","188","592953","0.0-3.0-1.146","<span style=""font-size:30px; font-family: monospace"">forte.</span>"," ","","exp-sent","forte.","","",""
"","null","html-keyboard-response","189","594207","0.0-3.0-0.147-0.147","<span style= ""font-size:30px; font-family: monospace"">+</span>","null","fixation","","","","",""
"","596","html-keyboard-response","190","595059","0.0-3.0-1.147","<span style=""font-size:30px; font-family: monospace"">Aquele</span>"," ","","exp-sent","Aquele","","",""
"","384","html-keyboard-response","191","595694","0.0-3.0-1.148","<span style=""font-size:30px; font-family: monospace"">menino</span>"," ","","exp-sent","menino","","",""
"","375","html-keyboard-response","192","596322","0.0-3.0-1.149","<span style=""font-size:30px; font-family: monospace"">alto</span>"," ","","exp-sent","alto","","",""
"","526","html-keyboard-response","193","597100","0.0-3.0-1.150","<span style=""font-size:30px; font-family: monospace"">é</span>"," ","","exp-sent","é","","",""
"","397","html-keyboard-response","194","597749","0.0-3.0-1.151","<span style=""font-size:30px; font-family: monospace"">exibido</span>"," ","","exp-sent","exibido","","",""
"","581","html-keyboard-response","195","598582","0.0-3.0-1.152","<span style=""font-size:30px; font-family: monospace"">e</span>"," ","","exp-sent","e","","",""
"","1094","html-keyboard-response","196","599926","0.0-3.0-1.153","<span style=""font-size:30px; font-family: monospace"">sovina.</span>"," ","","comp","sovina.","","",""
"","2311","html-keyboard-response","197","602488","0.0-3.0-2.153-0.153","<span style=""font-size:30px; font-family: monospace"">Aquele menino é humilde?</span>","n","","comp","","Aquele menino é humilde?","não","false"
"","null","html-keyboard-response","198","603992","0.0-3.0-0.154-0.154","<span style= ""font-size:30px; font-family: monospace"">+</span>","null","fixation","","","","",""
"","1332","html-keyboard-response","199","605574","0.0-3.0-1.154","<span style=""font-size:30px; font-family: monospace"">O</span>"," ","","exp-sent","O","","",""
"","1016","html-keyboard-response","200","606842","0.0-3.0-1.155","<span style=""font-size:30px; font-family: monospace"">travesseiro</span>"," ","","exp-sent","travesseiro","","",""
"","471","html-keyboard-response","201","607564","0.0-3.0-1.156","<span style=""font-size:30px; font-family: monospace"">era</span>"," ","","exp-sent","era","","",""
"","1317","html-keyboard-response","202","609133","0.0-3.0-1.157","<span style=""font-size:30px; font-family: monospace"">muito</span>"," ","","exp-sent","muito","","",""
"","860","html-keyboard-response","203","610244","0.0-3.0-1.158","<span style=""font-size:30px; font-family: monospace"">macio</span>"," ","","exp-sent","macio","","",""
"","507","html-keyboard-response","204","611003","0.0-3.0-1.159","<span style=""font-size:30px; font-family: monospace"">e</span>"," ","","exp-sent","e","","",""
"","800","html-keyboard-response","205","612054","0.0-3.0-1.160","<span style=""font-size:30px; font-family: monospace"">confortável.</span>"," ","","exp-sent","confortável.","","",""
"","null","html-keyboard-response","206","613309","0.0-3.0-0.161-0.161","<span style= ""font-size:30px; font-family: monospace"">+</span>","null","fixation","","","","",""
"","713","html-keyboard-response","207","614273","0.0-3.0-1.161","<span style=""font-size:30px; font-family: monospace"">Hoje</span>"," ","","exp-sent","Hoje","","",""
"","466","html-keyboard-response","208","614990","0.0-3.0-1.162","<span style=""font-size:30px; font-family: monospace"">a</span>"," ","","exp-sent","a","","",""
"","908","html-keyboard-response","209","616150","0.0-3.0-1.163","<span style=""font-size:30px; font-family: monospace"">atendente</span>"," ","","exp-sent","atendente","","",""
"","586","html-keyboard-response","210","616987","0.0-3.0-1.164","<span style=""font-size:30px; font-family: monospace"">estava</span>"," ","","exp-sent","estava","","",""
"","801","html-keyboard-response","211","618040","0.0-3.0-1.165","<span style=""font-size:30px; font-family: monospace"">furiosa</span>"," ","","exp-sent","furiosa","","",""
"","443","html-keyboard-response","212","618735","0.0-3.0-1.166","<span style=""font-size:30px; font-family: monospace"">com</span>"," ","","exp-sent","com","","",""
"","490","html-keyboard-response","213","619475","0.0-3.0-1.167","<span style=""font-size:30px; font-family: monospace"">o</span>"," ","","exp-sent","o","","",""
"","1308","html-keyboard-response","214","621034","0.0-3.0-1.168","<span style=""font-size:30px; font-family: monospace"">cliente.</span>"," ","","exp-sent","cliente.","","",""
"","null","html-keyboard-response","215","622286","0.0-3.0-0.169-0.169","<span style= ""font-size:30px; font-family: monospace"">+</span>","null","fixation","","","","",""
"","760","html-keyboard-response","216","623298","0.0-3.0-1.169","<span style=""font-size:30px; font-family: monospace"">O</span>"," ","","exp-sent","O","","",""
"","700","html-keyboard-response","217","624251","0.0-3.0-1.170","<span style=""font-size:30px; font-family: monospace"">vizinho</span>"," ","","exp-sent","vizinho","","",""
"","498","html-keyboard-response","218","625001","0.0-3.0-1.171","<span style=""font-size:30px; font-family: monospace"">é</span>"," ","","exp-sent","é","","",""
"","522","html-keyboard-response","219","625774","0.0-3.0-1.172","<span style=""font-size:30px; font-family: monospace"">um</span>"," ","","exp-sent","um","","",""
"","1048","html-keyboard-response","220","627074","0.0-3.0-1.173","<span style=""font-size:30px; font-family: monospace"">arquiteto</span>"," ","","exp-sent","arquiteto","","",""
"","781","html-keyboard-response","221","628119","0.0-3.0-1.174","<span style=""font-size:30px; font-family: monospace"">muito</span>"," ","","exp-sent","muito","","",""
"","1542","html-keyboard-response","222","629926","0.0-3.0-1.175","<span style=""font-size:30px; font-family: monospace"">excêntrico.</span>"," ","","exp-sent","excêntrico.","","",""
"","null","html-keyboard-response","223","631178","0.0-3.0-0.176-0.176","<span style= ""font-size:30px; font-family: monospace"">+</span>","null","fixation","","","","",""
"","640","html-keyboard-response","224","632069","0.0-3.0-1.176","<span style=""font-size:30px; font-family: monospace"">A</span>"," ","","exp-sent","A","","",""
"","442","html-keyboard-response","225","632762","0.0-3.0-1.177","<span style=""font-size:30px; font-family: monospace"">nossa</span>"," ","","exp-sent","nossa","","",""
"","476","html-keyboard-response","226","633490","0.0-3.0-1.178","<span style=""font-size:30px; font-family: monospace"">colega</span>"," ","","exp-sent","colega","","",""
"","371","html-keyboard-response","227","634112","0.0-3.0-1.179","<span style=""font-size:30px; font-family: monospace"">foi</span>"," ","","exp-sent","foi","","",""
"","451","html-keyboard-response","228","634814","0.0-3.0-1.180","<span style=""font-size:30px; font-family: monospace"">má</span>"," ","","exp-sent","má","","",""
"","481","html-keyboard-response","229","635546","0.0-3.0-1.181","<span style=""font-size:30px; font-family: monospace"">com</span>"," ","","exp-sent","com","","",""
"","418","html-keyboard-response","230","636218","0.0-3.0-1.182","<span style=""font-size:30px; font-family: monospace"">as</span>"," ","","exp-sent","as","","",""
"","420","html-keyboard-response","231","636890","0.0-3.0-1.183","<span style=""font-size:30px; font-family: monospace"">crianças.</span>"," ","","exp-sent","crianças.","","",""
"","null","html-keyboard-response","232","638141","0.0-3.0-0.184-0.184","<span style= ""font-size:30px; font-family: monospace"">+</span>","null","fixation","","","","",""
"","1501","html-keyboard-response","233","639906","0.0-3.0-1.184","<span style=""font-size:30px; font-family: monospace"">Virtudes</span>"," ","","exp-sent","Virtudes","","",""
"","668","html-keyboard-response","234","640826","0.0-3.0-1.185","<span style=""font-size:30px; font-family: monospace"">não</span>"," ","","exp-sent","não","","",""
"","510","html-keyboard-response","235","641588","0.0-3.0-1.186","<span style=""font-size:30px; font-family: monospace"">são</span>"," ","","exp-sent","são","","",""
"","1017","html-keyboard-response","236","642857","0.0-3.0-1.187","<span style=""font-size:30px; font-family: monospace"">preguiça,</span>"," ","","exp-sent","preguiça,","","",""
"","430","html-keyboard-response","237","643538","0.0-3.0-1.188","<span style=""font-size:30px; font-family: monospace"">gula</span>"," ","","exp-sent","gula","","",""
"","539","html-keyboard-response","238","644328","0.0-3.0-1.189","<span style=""font-size:30px; font-family: monospace"">nem</span>"," ","","exp-sent","nem","","",""
"","1461","html-keyboard-response","239","646040","0.0-3.0-1.190","<span style=""font-size:30px; font-family: monospace"">ganância.</span>"," ","","comp","ganância.","","",""
"","10813","html-keyboard-response","240","657104","0.0-3.0-2.190-0.190","<span style=""font-size:30px; font-family: monospace"">Preguiça é uma virtude?</span>","s","","comp","","Preguiça é uma virtude?","não","false"
"","null","html-keyboard-response","241","658607","0.0-3.0-0.191-0.191","<span style= ""font-size:30px; font-family: monospace"">+</span>","null","fixation","","","","",""
"","706","html-keyboard-response","242","659566","0.0-3.0-1.191","<span style=""font-size:30px; font-family: monospace"">Preciso</span>"," ","","exp-sent","Preciso","","",""
"","386","html-keyboard-response","243","660203","0.0-3.0-1.192","<span style=""font-size:30px; font-family: monospace"">de</span>"," ","","exp-sent","de","","",""
"","387","html-keyboard-response","244","660841","0.0-3.0-1.193","<span style=""font-size:30px; font-family: monospace"">um</span>"," ","","exp-sent","um","","",""
"","647","html-keyboard-response","245","661739","0.0-3.0-1.194","<span style=""font-size:30px; font-family: monospace"">relatório</span>"," ","","exp-sent","relatório","","",""
"","337","html-keyboard-response","246","662326","0.0-3.0-1.195","<span style=""font-size:30px; font-family: monospace"">oficial</span>"," ","","exp-sent","oficial","","",""
"","429","html-keyboard-response","247","663007","0.0-3.0-1.196","<span style=""font-size:30px; font-family: monospace"">para</span>"," ","","exp-sent","para","","",""
"","833","html-keyboard-response","248","664091","0.0-3.0-1.197","<span style=""font-size:30px; font-family: monospace"">amanhã.</span>"," ","","exp-sent","amanhã.","","",""
"","null","html-keyboard-response","249","665343","0.0-3.0-0.198-0.198","<span style= ""font-size:30px; font-family: monospace"">+</span>","null","fixation","","","","",""
"","487","html-keyboard-response","250","666081","0.0-3.0-1.198","<span style=""font-size:30px; font-family: monospace"">Ele</span>"," ","","exp-sent","Ele","","",""
"","317","html-keyboard-response","251","666654","0.0-3.0-1.199","<span style=""font-size:30px; font-family: monospace"">viu</span>"," ","","exp-sent","viu","","",""
"","440","html-keyboard-response","252","667346","0.0-3.0-1.200","<span style=""font-size:30px; font-family: monospace"">um</span>"," ","","exp-sent","um","","",""
"","511","html-keyboard-response","253","668109","0.0-3.0-1.201","<span style=""font-size:30px; font-family: monospace"">inseto</span>"," ","","exp-sent","inseto","","",""
"","631","html-keyboard-response","254","668990","0.0-3.0-1.202","<span style=""font-size:30px; font-family: monospace"">marrom</span>"," ","","exp-sent","marrom","","",""
"","565","html-keyboard-response","255","669807","0.0-3.0-1.203","<span style=""font-size:30px; font-family: monospace"">na</span>"," ","","exp-sent","na","","",""
"","643","html-keyboard-response","256","670700","0.0-3.0-1.204","<span style=""font-size:30px; font-family: monospace"">parede.</span>"," ","","exp-sent","parede.","","",""
"","null","html-keyboard-response","257","671952","0.0-3.0-0.205-0.205","<span style= ""font-size:30px; font-family: monospace"">+</span>","null","fixation","","","","",""
"","271","html-keyboard-response","258","672475","0.0-3.0-1.205","<span style=""font-size:30px; font-family: monospace"">O</span>"," ","","exp-sent","O","","",""
"","746","html-keyboard-response","259","673484","0.0-3.0-1.206","<span style=""font-size:30px; font-family: monospace"">avô</span>"," ","","exp-sent","avô","","",""
"","449","html-keyboard-response","260","674193","0.0-3.0-1.207","<span style=""font-size:30px; font-family: monospace"">fez</span>"," ","","exp-sent","fez","","",""
"","489","html-keyboard-response","261","674934","0.0-3.0-1.208","<span style=""font-size:30px; font-family: monospace"">uma</span>"," ","","exp-sent","uma","","",""
"","799","html-keyboard-response","262","675984","0.0-3.0-1.209","<span style=""font-size:30px; font-family: monospace"">lista</span>"," ","","exp-sent","lista","","",""
"","441","html-keyboard-response","263","676678","0.0-3.0-1.210","<span style=""font-size:30px; font-family: monospace"">de</span>"," ","","exp-sent","de","","",""
"","992","html-keyboard-response","264","677921","0.0-3.0-1.211","<span style=""font-size:30px; font-family: monospace"">compras</span>"," ","","exp-sent","compras","","",""
"","635","html-keyboard-response","265","678808","0.0-3.0-1.212","<span style=""font-size:30px; font-family: monospace"">do</span>"," ","","exp-sent","do","","",""
"","1061","html-keyboard-response","266","680121","0.0-3.0-1.213","<span style=""font-size:30px; font-family: monospace"">mercado.</span>"," ","","exp-sent","mercado.","","",""
"","null","html-keyboard-response","267","681373","0.0-3.0-0.214-0.214","<span style= ""font-size:30px; font-family: monospace"">+</span>","null","fixation","","","","",""
"","1190","html-keyboard-response","268","682814","0.0-3.0-1.214","<span style=""font-size:30px; font-family: monospace"">As</span>"," ","","exp-sent","As","","",""
"","552","html-keyboard-response","269","683618","0.0-3.0-1.215","<span style=""font-size:30px; font-family: monospace"">pessoas</span>"," ","","exp-sent","pessoas","","",""
"","431","html-keyboard-response","270","684300","0.0-3.0-1.216","<span style=""font-size:30px; font-family: monospace"">não</span>"," ","","exp-sent","não","","",""
"","491","html-keyboard-response","271","685043","0.0-3.0-1.217","<span style=""font-size:30px; font-family: monospace"">enviam</span>"," ","","exp-sent","enviam","","",""
"","552","html-keyboard-response","272","685849","0.0-3.0-1.218","<span style=""font-size:30px; font-family: monospace"">telegrama</span>"," ","","exp-sent","telegrama","","",""
"","397","html-keyboard-response","273","686497","0.0-3.0-1.219","<span style=""font-size:30px; font-family: monospace"">nos</span>"," ","","exp-sent","nos","","",""
"","435","html-keyboard-response","274","687183","0.0-3.0-1.220","<span style=""font-size:30px; font-family: monospace"">dias</span>"," ","","exp-sent","dias","","",""
"","462","html-keyboard-response","275","687896","0.0-3.0-1.221","<span style=""font-size:30px; font-family: monospace"">de</span>"," ","","exp-sent","de","","",""
"","500","html-keyboard-response","276","688647","0.0-3.0-1.222","<span style=""font-size:30px; font-family: monospace"">hoje.</span>"," ","","exp-sent","hoje.","","",""
"","null","html-keyboard-response","277","689899","0.0-3.0-0.223-0.223","<span style= ""font-size:30px; font-family: monospace"">+</span>","null","fixation","","","","",""
"","430","html-keyboard-response","278","690581","0.0-3.0-1.223","<span style=""font-size:30px; font-family: monospace"">Ele</span>"," ","","exp-sent","Ele","","",""
"","387","html-keyboard-response","279","691219","0.0-3.0-1.224","<span style=""font-size:30px; font-family: monospace"">não</span>"," ","","exp-sent","não","","",""
"","308","html-keyboard-response","280","691779","0.0-3.0-1.225","<span style=""font-size:30px; font-family: monospace"">gosta</span>"," ","","exp-sent","gosta","","",""
"","347","html-keyboard-response","281","692377","0.0-3.0-1.226","<span style=""font-size:30px; font-family: monospace"">de</span>"," ","","exp-sent","de","","",""
"","328","html-keyboard-response","282","692957","0.0-3.0-1.227","<span style=""font-size:30px; font-family: monospace"">tomate</span>"," ","","exp-sent","tomate","","",""
"","488","html-keyboard-response","283","693697","0.0-3.0-1.228","<span style=""font-size:30px; font-family: monospace"">misturado</span>"," ","","exp-sent","misturado","","",""
"","376","html-keyboard-response","284","694325","0.0-3.0-1.229","<span style=""font-size:30px; font-family: monospace"">na</span>"," ","","exp-sent","na","","",""
"","421","html-keyboard-response","285","694997","0.0-3.0-1.230","<span style=""font-size:30px; font-family: monospace"">comida.</span>"," ","","comp","comida.","","",""
"","7231","html-keyboard-response","286","702480","0.0-3.0-2.230-0.230","<span style=""font-size:30px; font-family: monospace"">Ele gosta de tomate na comida?</span>","n","","comp","","Ele gosta de tomate na comida?","não","false"
"","null","html-keyboard-response","287","703982","0.0-3.0-0.231-0.231","<span style= ""font-size:30px; font-family: monospace"">+</span>","null","fixation","","","","",""
"","470","html-keyboard-response","288","704703","0.0-3.0-1.231","<span style=""font-size:30px; font-family: monospace"">Ele</span>"," ","","exp-sent","Ele","","",""
"","35","html-keyboard-response","289","704990","0.0-3.0-1.232","<span style=""font-size:30px; font-family: monospace"">é</span>"," ","","exp-sent","é","","",""
"","12","html-keyboard-response","290","705253","0.0-3.0-1.233","<span style=""font-size:30px; font-family: monospace"">um</span>"," ","","exp-sent","um","","",""
"","167","html-keyboard-response","291","705671","0.0-3.0-1.234","<span style=""font-size:30px; font-family: monospace"">pai</span>"," ","","exp-sent","pai","","",""
"","189","html-keyboard-response","292","706111","0.0-3.0-1.235","<span style=""font-size:30px; font-family: monospace"">ausente</span>"," ","","exp-sent","ausente","","",""
"","434","html-keyboard-response","293","706796","0.0-3.0-1.236","<span style=""font-size:30px; font-family: monospace"">e</span>"," ","","exp-sent","e","","",""
"","192","html-keyboard-response","294","707240","0.0-3.0-1.237","<span style=""font-size:30px; font-family: monospace"">muito</span>"," ","","exp-sent","muito","","",""
"","982","html-keyboard-response","295","708474","0.0-3.0-1.238","<span style=""font-size:30px; font-family: monospace"">fofoqueiro.</span>"," ","","exp-sent","fofoqueiro.","","",""
"","null","html-keyboard-response","296","709725","0.0-3.0-0.239-0.239","<span style= ""font-size:30px; font-family: monospace"">+</span>","null","fixation","","","","",""
"","565","html-keyboard-response","297","710541","0.0-3.0-1.239","<span style=""font-size:30px; font-family: monospace"">O</span>"," ","","exp-sent","O","","",""
"","545","html-keyboard-response","298","711338","0.0-3.0-1.240","<span style=""font-size:30px; font-family: monospace"">filho</span>"," ","","exp-sent","filho","","",""
"","406","html-keyboard-response","299","711995","0.0-3.0-1.241","<span style=""font-size:30px; font-family: monospace"">lavou</span>"," ","","exp-sent","lavou","","",""
"","390","html-keyboard-response","300","712636","0.0-3.0-1.242","<span style=""font-size:30px; font-family: monospace"">a</span>"," ","","exp-sent","a","","",""
"","167","html-keyboard-response","301","713054","0.0-3.0-1.243","<span style=""font-size:30px; font-family: monospace"">roupa</span>"," ","","exp-sent","roupa","","",""
"","441","html-keyboard-response","302","713746","0.0-3.0-1.244","<span style=""font-size:30px; font-family: monospace"">sem</span>"," ","","exp-sent","sem","","",""
"","605","html-keyboard-response","303","714602","0.0-3.0-1.245","<span style=""font-size:30px; font-family: monospace"">nenhuma</span>"," ","","exp-sent","nenhuma","","",""
"","315","html-keyboard-response","304","715169","0.0-3.0-1.246","<span style=""font-size:30px; font-family: monospace"">ajuda.</span>"," ","","exp-sent","ajuda.","","",""
"","null","html-keyboard-response","305","716421","0.0-3.0-0.247-0.247","<span style= ""font-size:30px; font-family: monospace"">+</span>","null","fixation","","","","",""
"","442","html-keyboard-response","306","717114","0.0-3.0-1.247","<span style=""font-size:30px; font-family: monospace"">O</span>"," ","","exp-sent","O","","",""
"","329","html-keyboard-response","307","717695","0.0-3.0-1.248","<span style=""font-size:30px; font-family: monospace"">menino</span>"," ","","exp-sent","menino","","",""
"","328","html-keyboard-response","308","718275","0.0-3.0-1.249","<span style=""font-size:30px; font-family: monospace"">quebrou</span>"," ","","exp-sent","quebrou","","",""
"","821","html-keyboard-response","309","719347","0.0-3.0-1.250","<span style=""font-size:30px; font-family: monospace"">a</span>"," ","","exp-sent","a","","",""
"","463","html-keyboard-response","310","720061","0.0-3.0-1.251","<span style=""font-size:30px; font-family: monospace"">perna</span>"," ","","exp-sent","perna","","",""
"","415","html-keyboard-response","311","720727","0.0-3.0-1.252","<span style=""font-size:30px; font-family: monospace"">nos</span>"," ","","exp-sent","nos","","",""
"","776","html-keyboard-response","312","721755","0.0-3.0-1.253","<span style=""font-size:30px; font-family: monospace"">esportes.</span>"," ","","exp-sent","esportes.","","",""
"","null","html-keyboard-response","313","723007","0.0-3.0-0.254-0.254","<span style= ""font-size:30px; font-family: monospace"">+</span>","null","fixation","","","","",""
"","558","html-keyboard-response","314","723816","0.0-3.0-1.254","<span style=""font-size:30px; font-family: monospace"">Ela</span>"," ","","exp-sent","Ela","","",""
"","866","html-keyboard-response","315","724934","0.0-3.0-1.255","<span style=""font-size:30px; font-family: monospace"">brincou</span>"," ","","exp-sent","brincou","","",""
"","432","html-keyboard-response","316","725618","0.0-3.0-1.256","<span style=""font-size:30px; font-family: monospace"">com</span>"," ","","exp-sent","com","","",""
"","531","html-keyboard-response","317","726401","0.0-3.0-1.257","<span style=""font-size:30px; font-family: monospace"">uma</span>"," ","","exp-sent","uma","","",""
"","595","html-keyboard-response","318","727246","0.0-3.0-1.258","<span style=""font-size:30px; font-family: monospace"">menina</span>"," ","","exp-sent","menina","","",""
"","418","html-keyboard-response","319","727916","0.0-3.0-1.259","<span style=""font-size:30px; font-family: monospace"">da</span>"," ","","exp-sent","da","","",""
"","497","html-keyboard-response","320","728663","0.0-3.0-1.260","<span style=""font-size:30px; font-family: monospace"">turma.</span>"," ","","exp-sent","turma.","","",""
"","null","html-keyboard-response","321","729915","0.0-3.0-0.261-0.261","<span style= ""font-size:30px; font-family: monospace"">+</span>","null","fixation","","","","",""
"","686","html-keyboard-response","322","730853","0.0-3.0-1.261","<span style=""font-size:30px; font-family: monospace"">Ele</span>"," ","","exp-sent","Ele","","",""
"","622","html-keyboard-response","323","731727","0.0-3.0-1.262","<span style=""font-size:30px; font-family: monospace"">esteve</span>"," ","","exp-sent","esteve","","",""
"","478","html-keyboard-response","324","732458","0.0-3.0-1.263","<span style=""font-size:30px; font-family: monospace"">no</span>"," ","","exp-sent","no","","",""
"","981","html-keyboard-response","325","733690","0.0-3.0-1.264","<span style=""font-size:30px; font-family: monospace"">escritório</span>"," ","","exp-sent","escritório","","",""
"","430","html-keyboard-response","326","734372","0.0-3.0-1.265","<span style=""font-size:30px; font-family: monospace"">o</span>"," ","","exp-sent","o","","",""
"","506","html-keyboard-response","327","735130","0.0-3.0-1.266","<span style=""font-size:30px; font-family: monospace"">dia</span>"," ","","exp-sent","dia","","",""
"","508","html-keyboard-response","328","735890","0.0-3.0-1.267","<span style=""font-size:30px; font-family: monospace"">inteiro.</span>"," ","","comp","inteiro.","","",""
"","2777","html-keyboard-response","329","738918","0.0-3.0-2.267-0.267","<span style=""font-size:30px; font-family: monospace"">Ele esteve no parque o dia inteiro?</span>","n","","comp","","Ele esteve no parque o dia inteiro?","não","false"
"","null","html-keyboard-response","330","740420","0.0-3.0-0.268-0.268","<span style= ""font-size:30px; font-family: monospace"">+</span>","null","fixation","","","","",""
"","404","html-keyboard-response","331","741077","0.0-3.0-1.268","<span style=""font-size:30px; font-family: monospace"">As</span>"," ","","exp-sent","As","","",""
"","181","html-keyboard-response","332","741509","0.0-3.0-1.269","<span style=""font-size:30px; font-family: monospace"">crianças</span>"," ","","exp-sent","crianças","","",""
"","110","html-keyboard-response","333","741870","0.0-3.0-1.270","<span style=""font-size:30px; font-family: monospace"">viram</span>"," ","","exp-sent","viram","","",""
"","113","html-keyboard-response","334","742234","0.0-3.0-1.271","<span style=""font-size:30px; font-family: monospace"">um</span>"," ","","exp-sent","um","","",""
"","98","html-keyboard-response","335","742583","0.0-3.0-1.272","<span style=""font-size:30px; font-family: monospace"">vaga-lume</span>"," ","","exp-sent","vaga-lume","","",""
"","68","html-keyboard-response","336","742902","0.0-3.0-1.273","<span style=""font-size:30px; font-family: monospace"">nos</span>"," ","","exp-sent","nos","","",""
"","124","html-keyboard-response","337","743277","0.0-3.0-1.274","<span style=""font-size:30px; font-family: monospace"">arbustos.</span>"," ","","exp-sent","arbustos.","","",""
"","null","html-keyboard-response","338","744529","0.0-3.0-0.275-0.275","<span style= ""font-size:30px; font-family: monospace"">+</span>","null","fixation","","","","",""
"","158","html-keyboard-response","339","744939","0.0-3.0-1.275","<span style=""font-size:30px; font-family: monospace"">Ontem</span>"," ","","exp-sent","Ontem","","",""
"","129","html-keyboard-response","340","745321","0.0-3.0-1.276","<span style=""font-size:30px; font-family: monospace"">o</span>"," ","","exp-sent","o","","",""
"","180","html-keyboard-response","341","745751","0.0-3.0-1.277","<span style=""font-size:30px; font-family: monospace"">funcionário</span>"," ","","exp-sent","funcionário","","",""
"","249","html-keyboard-response","342","746256","0.0-3.0-1.278","<span style=""font-size:30px; font-family: monospace"">pediu</span>"," ","","exp-sent","pediu","","",""
"","831","html-keyboard-response","343","747339","0.0-3.0-1.279","<span style=""font-size:30px; font-family: monospace"">autorização</span>"," ","","exp-sent","autorização","","",""
"","281","html-keyboard-response","344","747871","0.0-3.0-1.280","<span style=""font-size:30px; font-family: monospace"">para</span>"," ","","exp-sent","para","","",""
"","73","html-keyboard-response","345","748201","0.0-3.0-1.281","<span style=""font-size:30px; font-family: monospace"">a</span>"," ","","exp-sent","a","","",""
"","311","html-keyboard-response","346","748763","0.0-3.0-1.282","<span style=""font-size:30px; font-family: monospace"">colega.</span>"," ","","exp-sent","colega.","","",""
"","null","html-keyboard-response","347","750016","0.0-3.0-0.283-0.283","<span style= ""font-size:30px; font-family: monospace"">+</span>","null","fixation","","","","",""
"","419","html-keyboard-response","348","750687","0.0-3.0-1.283","<span style=""font-size:30px; font-family: monospace"">Eu</span>"," ","","exp-sent","Eu","","",""
"","607","html-keyboard-response","349","751546","0.0-3.0-1.284","<span style=""font-size:30px; font-family: monospace"">sempre</span>"," ","","exp-sent","sempre","","",""
"","283","html-keyboard-response","350","752080","0.0-3.0-1.285","<span style=""font-size:30px; font-family: monospace"">fujo</span>"," ","","exp-sent","fujo","","",""
"","322","html-keyboard-response","351","752654","0.0-3.0-1.286","<span style=""font-size:30px; font-family: monospace"">de</span>"," ","","exp-sent","de","","",""
"","383","html-keyboard-response","352","753288","0.0-3.0-1.287","<span style=""font-size:30px; font-family: monospace"">conflito</span>"," ","","exp-sent","conflito","","",""
"","417","html-keyboard-response","353","753957","0.0-3.0-1.288","<span style=""font-size:30px; font-family: monospace"">com</span>"," ","","exp-sent","com","","",""
"","333","html-keyboard-response","354","754543","0.0-3.0-1.289","<span style=""font-size:30px; font-family: monospace"">as</span>"," ","","exp-sent","as","","",""
"","539","html-keyboard-response","355","755333","0.0-3.0-1.290","<span style=""font-size:30px; font-family: monospace"">pessoas.</span>"," ","","exp-sent","pessoas.","","",""
"","null","html-keyboard-response","356","756585","0.0-3.0-0.291-0.291","<span style= ""font-size:30px; font-family: monospace"">+</span>","null","fixation","","","","",""
"","738","html-keyboard-response","357","757576","0.0-3.0-1.291","<span style=""font-size:30px; font-family: monospace"">O</span>"," ","","exp-sent","O","","",""
"","555","html-keyboard-response","358","758384","0.0-3.0-1.292","<span style=""font-size:30px; font-family: monospace"">bolo</span>"," ","","exp-sent","bolo","","",""
"","308","html-keyboard-response","359","758942","0.0-3.0-1.293","<span style=""font-size:30px; font-family: monospace"">era</span>"," ","","exp-sent","era","","",""
"","437","html-keyboard-response","360","759631","0.0-3.0-1.294","<span style=""font-size:30px; font-family: monospace"">de</span>"," ","","exp-sent","de","","",""
"","936","html-keyboard-response","361","760819","0.0-3.0-1.295","<span style=""font-size:30px; font-family: monospace"">abacaxi</span>"," ","","exp-sent","abacaxi","","",""
"","447","html-keyboard-response","362","761518","0.0-3.0-1.296","<span style=""font-size:30px; font-family: monospace"">e</span>"," ","","exp-sent","e","","",""
"","420","html-keyboard-response","363","762189","0.0-3.0-1.297","<span style=""font-size:30px; font-family: monospace"">creme</span>"," ","","exp-sent","creme","","",""
"","439","html-keyboard-response","364","762879","0.0-3.0-1.298","<span style=""font-size:30px; font-family: monospace"">de</span>"," ","","exp-sent","de","","",""
"","361","html-keyboard-response","365","763494","0.0-3.0-1.299","<span style=""font-size:30px; font-family: monospace"">coco.</span>"," ","","exp-sent","coco.","","",""
"","null","html-keyboard-response","366","764746","0.0-3.0-0.300-0.300","<span style= ""font-size:30px; font-family: monospace"">+</span>","null","fixation","","","","",""
"","864","html-keyboard-response","367","765860","0.0-3.0-1.300","<span style=""font-size:30px; font-family: monospace"">As</span>"," ","","exp-sent","As","","",""
"","617","html-keyboard-response","368","766729","0.0-3.0-1.301","<span style=""font-size:30px; font-family: monospace"">crianças</span>"," ","","exp-sent","crianças","","",""
"","629","html-keyboard-response","369","767609","0.0-3.0-1.302","<span style=""font-size:30px; font-family: monospace"">brincaram</span>"," ","","exp-sent","brincaram","","",""
"","454","html-keyboard-response","370","768314","0.0-3.0-1.303","<span style=""font-size:30px; font-family: monospace"">com</span>"," ","","exp-sent","com","","",""
"","497","html-keyboard-response","371","769062","0.0-3.0-1.304","<span style=""font-size:30px; font-family: monospace"">bolhas</span>"," ","","exp-sent","bolhas","","",""
"","413","html-keyboard-response","372","769726","0.0-3.0-1.305","<span style=""font-size:30px; font-family: monospace"">no</span>"," ","","exp-sent","no","","",""
"","795","html-keyboard-response","373","770772","0.0-3.0-1.306","<span style=""font-size:30px; font-family: monospace"">banho.</span>"," ","","comp","banho.","","",""
"","5201","html-keyboard-response","374","776224","0.0-3.0-2.306-0.306","<span style=""font-size:30px; font-family: monospace"">As crianças brincaram com bolhas?</span>","s","","comp","","As crianças brincaram com bolhas?","sim","false"
"","null","html-keyboard-response","375","777725","0.0-3.0-0.307-0.307","<span style= ""font-size:30px; font-family: monospace"">+</span>","null","fixation","","","","",""
"","474","html-keyboard-response","376","778450","0.0-3.0-1.307","<span style=""font-size:30px; font-family: monospace"">O</span>"," ","","exp-sent","O","","",""
"","142","html-keyboard-response","377","778843","0.0-3.0-1.308","<span style=""font-size:30px; font-family: monospace"">moço</span>"," ","","exp-sent","moço","","",""
"","122","html-keyboard-response","378","779216","0.0-3.0-1.309","<span style=""font-size:30px; font-family: monospace"">usou</span>"," ","","exp-sent","usou","","",""
"","101","html-keyboard-response","379","779568","0.0-3.0-1.310","<span style=""font-size:30px; font-family: monospace"">várias</span>"," ","","exp-sent","várias","","",""
"","103","html-keyboard-response","380","779922","0.0-3.0-1.311","<span style=""font-size:30px; font-family: monospace"">velas</span>"," ","","exp-sent","velas","","",""
"","102","html-keyboard-response","381","780276","0.0-3.0-1.312","<span style=""font-size:30px; font-family: monospace"">no</span>"," ","","exp-sent","no","","",""
"","84","html-keyboard-response","382","780611","0.0-3.0-1.313","<span style=""font-size:30px; font-family: monospace"">enfeite</span>"," ","","exp-sent","enfeite","","",""
"","112","html-keyboard-response","383","780974","0.0-3.0-1.314","<span style=""font-size:30px; font-family: monospace"">de</span>"," ","","exp-sent","de","","",""
"","111","html-keyboard-response","384","781336","0.0-3.0-1.315","<span style=""font-size:30px; font-family: monospace"">mesa.</span>"," ","","exp-sent","mesa.","","",""
"","null","html-keyboard-response","385","782588","0.0-3.0-0.316-0.316","<span style= ""font-size:30px; font-family: monospace"">+</span>","null","fixation","","","","",""
"","198","html-keyboard-response","386","783038","0.0-3.0-1.316","<span style=""font-size:30px; font-family: monospace"">Gostamos</span>"," ","","exp-sent","Gostamos","","",""
"","136","html-keyboard-response","387","783425","0.0-3.0-1.317","<span style=""font-size:30px; font-family: monospace"">de</span>"," ","","exp-sent","de","","",""
"","152","html-keyboard-response","388","783833","0.0-3.0-1.318","<span style=""font-size:30px; font-family: monospace"">suco</span>"," ","","exp-sent","suco","","",""
"","138","html-keyboard-response","389","784222","0.0-3.0-1.319","<span style=""font-size:30px; font-family: monospace"">em</span>"," ","","exp-sent","em","","",""
"","137","html-keyboard-response","390","784610","0.0-3.0-1.320","<span style=""font-size:30px; font-family: monospace"">garrafa</span>"," ","","exp-sent","garrafa","","",""
"","379","html-keyboard-response","391","785241","0.0-3.0-1.321","<span style=""font-size:30px; font-family: monospace"">de</span>"," ","","exp-sent","de","","",""
"","168","html-keyboard-response","392","785661","0.0-3.0-1.322","<span style=""font-size:30px; font-family: monospace"">tamanho</span>"," ","","exp-sent","tamanho","","",""
"","417","html-keyboard-response","393","786329","0.0-3.0-1.323","<span style=""font-size:30px; font-family: monospace"">pequeno.</span>"," ","","exp-sent","pequeno.","","",""
"","null","html-keyboard-response","394","787581","0.0-3.0-0.324-0.324","<span style= ""font-size:30px; font-family: monospace"">+</span>","null","fixation","","","","",""
"","366","html-keyboard-response","395","788199","0.0-3.0-1.324","<span style=""font-size:30px; font-family: monospace"">Sua</span>"," ","","exp-sent","Sua","","",""
"","555","html-keyboard-response","396","789005","0.0-3.0-1.325","<span style=""font-size:30px; font-family: monospace"">filha</span>"," ","","exp-sent","filha","","",""
"","284","html-keyboard-response","397","789543","0.0-3.0-1.326","<span style=""font-size:30px; font-family: monospace"">é</span>"," ","","exp-sent","é","","",""
"","288","html-keyboard-response","398","790082","0.0-3.0-1.327","<span style=""font-size:30px; font-family: monospace"">muito</span>"," ","","exp-sent","muito","","",""
"","276","html-keyboard-response","399","790610","0.0-3.0-1.328","<span style=""font-size:30px; font-family: monospace"">capaz</span>"," ","","exp-sent","capaz","","",""
"","261","html-keyboard-response","400","791122","0.0-3.0-1.329","<span style=""font-size:30px; font-family: monospace"">e</span>"," ","","exp-sent","e","","",""
"","277","html-keyboard-response","401","791650","0.0-3.0-1.330","<span style=""font-size:30px; font-family: monospace"">esforçada.</span>"," ","","exp-sent","esforçada.","","",""
"","null","html-keyboard-response","402","792903","0.0-3.0-0.331-0.331","<span style= ""font-size:30px; font-family: monospace"">+</span>","null","fixation","","","","",""
"","440","html-keyboard-response","403","793595","0.0-3.0-1.331","<span style=""font-size:30px; font-family: monospace"">A</span>"," ","","exp-sent","A","","",""
"","909","html-keyboard-response","404","794756","0.0-3.0-1.332","<span style=""font-size:30px; font-family: monospace"">batida</span>"," ","","exp-sent","batida","","",""
"","785","html-keyboard-response","405","795792","0.0-3.0-1.333","<span style=""font-size:30px; font-family: monospace"">causou</span>"," ","","exp-sent","causou","","",""
"","690","html-keyboard-response","406","796734","0.0-3.0-1.334","<span style=""font-size:30px; font-family: monospace"">muita</span>"," ","","exp-sent","muita","","",""
"","526","html-keyboard-response","407","797512","0.0-3.0-1.335","<span style=""font-size:30px; font-family: monospace"">confusão</span>"," ","","exp-sent","confusão","","",""
"","467","html-keyboard-response","408","798230","0.0-3.0-1.336","<span style=""font-size:30px; font-family: monospace"">na</span>"," ","","exp-sent","na","","",""
"","1432","html-keyboard-response","409","799914","0.0-3.0-1.337","<span style=""font-size:30px; font-family: monospace"">estrada.</span>"," ","","exp-sent","estrada.","","",""
"","null","html-keyboard-response","410","801166","0.0-3.0-0.338-0.338","<span style= ""font-size:30px; font-family: monospace"">+</span>","null","fixation","","","","",""
"","513","html-keyboard-response","411","801931","0.0-3.0-1.338","<span style=""font-size:30px; font-family: monospace"">Eu</span>"," ","","exp-sent","Eu","","",""
"","967","html-keyboard-response","412","803149","0.0-3.0-1.339","<span style=""font-size:30px; font-family: monospace"">cozinhei</span>"," ","","exp-sent","cozinhei","","",""
"","508","html-keyboard-response","413","803907","0.0-3.0-1.340","<span style=""font-size:30px; font-family: monospace"">um</span>"," ","","exp-sent","um","","",""
"","678","html-keyboard-response","414","804836","0.0-3.0-1.341","<span style=""font-size:30px; font-family: monospace"">almoço</span>"," ","","exp-sent","almoço","","",""
"","541","html-keyboard-response","415","805629","0.0-3.0-1.342","<span style=""font-size:30px; font-family: monospace"">nutritivo</span>"," ","","exp-sent","nutritivo","","",""
"","930","html-keyboard-response","416","806810","0.0-3.0-1.343","<span style=""font-size:30px; font-family: monospace"">para</span>"," ","","exp-sent","para","","",""
"","891","html-keyboard-response","417","807953","0.0-3.0-1.344","<span style=""font-size:30px; font-family: monospace"">hoje.</span>"," ","","comp","hoje.","","",""
"","3989","html-keyboard-response","418","812195","0.0-3.0-2.344-0.344","<span style=""font-size:30px; font-family: monospace"">O almoço era nutritivo?</span>","n","","comp","","O almoço era nutritivo?","sim","false"
"","null","html-keyboard-response","419","813701","0.0-3.0-0.345-0.345","<span style= ""font-size:30px; font-family: monospace"">+</span>","null","fixation","","","","",""
"","2238","html-keyboard-response","420","816191","0.0-3.0-1.345","<span style=""font-size:30px; font-family: monospace"">Barulho</span>"," ","","exp-sent","Barulho","","",""
"","529","html-keyboard-response","421","816971","0.0-3.0-1.346","<span style=""font-size:30px; font-family: monospace"">de</span>"," ","","exp-sent","de","","",""
"","799","html-keyboard-response","422","818021","0.0-3.0-1.347","<span style=""font-size:30px; font-family: monospace"">carros</span>"," ","","exp-sent","carros","","",""
"","57","html-keyboard-response","423","818330","0.0-3.0-1.348","<span style=""font-size:30px; font-family: monospace"">é</span>"," ","","exp-sent","é","","",""
"","170","html-keyboard-response","424","818750","0.0-3.0-1.349","<span style=""font-size:30px; font-family: monospace"">irritante</span>"," ","","exp-sent","irritante","","",""
"","146","html-keyboard-response","425","819148","0.0-3.0-1.350","<span style=""font-size:30px; font-family: monospace"">para</span>"," ","","exp-sent","para","","",""
"","135","html-keyboard-response","426","819534","0.0-3.0-1.351","<span style=""font-size:30px; font-family: monospace"">a</span>"," ","","exp-sent","a","","",""
"","110","html-keyboard-response","427","819894","0.0-3.0-1.352","<span style=""font-size:30px; font-family: monospace"">moça.</span>"," ","","exp-sent","moça.","","",""
"","null","html-keyboard-response","428","821148","0.0-3.0-0.353-0.353","<span style= ""font-size:30px; font-family: monospace"">+</span>","null","fixation","","","","",""
"","347","html-keyboard-response","429","821747","0.0-3.0-1.353","<span style=""font-size:30px; font-family: monospace"">A</span>"," ","","exp-sent","A","","",""
"","618","html-keyboard-response","430","822615","0.0-3.0-1.354","<span style=""font-size:30px; font-family: monospace"">loja</span>"," ","","exp-sent","loja","","",""
"","457","html-keyboard-response","431","823324","0.0-3.0-1.355","<span style=""font-size:30px; font-family: monospace"">também</span>"," ","","exp-sent","também","","",""
"","394","html-keyboard-response","432","823968","0.0-3.0-1.356","<span style=""font-size:30px; font-family: monospace"">vende</span>"," ","","exp-sent","vende","","",""
"","345","html-keyboard-response","433","824565","0.0-3.0-1.357","<span style=""font-size:30px; font-family: monospace"">taça</span>"," ","","exp-sent","taça","","",""
"","456","html-keyboard-response","434","825272","0.0-3.0-1.358","<span style=""font-size:30px; font-family: monospace"">de</span>"," ","","exp-sent","de","","",""
"","379","html-keyboard-response","435","825902","0.0-3.0-1.359","<span style=""font-size:30px; font-family: monospace"">vinho</span>"," ","","exp-sent","vinho","","",""
"","527","html-keyboard-response","436","826680","0.0-3.0-1.360","<span style=""font-size:30px; font-family: monospace"">e</span>"," ","","exp-sent","e","","",""
"","818","html-keyboard-response","437","827750","0.0-3.0-1.361","<span style=""font-size:30px; font-family: monospace"">espumante.</span>"," ","","exp-sent","espumante.","","",""
"","null","html-keyboard-response","438","829002","0.0-3.0-0.362-0.362","<span style= ""font-size:30px; font-family: monospace"">+</span>","null","fixation","","","","",""
"","424","html-keyboard-response","439","829677","0.0-3.0-1.362","<span style=""font-size:30px; font-family: monospace"">A</span>"," ","","exp-sent","A","","",""
"","712","html-keyboard-response","440","830641","0.0-3.0-1.363","<span style=""font-size:30px; font-family: monospace"">bruxa</span>"," ","","exp-sent","bruxa","","",""
"","465","html-keyboard-response","441","831357","0.0-3.0-1.364","<span style=""font-size:30px; font-family: monospace"">tinha</span>"," ","","exp-sent","tinha","","",""
"","427","html-keyboard-response","442","832037","0.0-3.0-1.365","<span style=""font-size:30px; font-family: monospace"">uma</span>"," ","","exp-sent","uma","","",""
"","1210","html-keyboard-response","443","833498","0.0-3.0-1.366","<span style=""font-size:30px; font-family: monospace"">vassoura</span>"," ","","exp-sent","vassoura","","",""
"","822","html-keyboard-response","444","834571","0.0-3.0-1.367","<span style=""font-size:30px; font-family: monospace"">e</span>"," ","","exp-sent","e","","",""
"","998","html-keyboard-response","445","835820","0.0-3.0-1.368","<span style=""font-size:30px; font-family: monospace"">um</span>"," ","","exp-sent","um","","",""
"","1440","html-keyboard-response","446","837512","0.0-3.0-1.369","<span style=""font-size:30px; font-family: monospace"">gato.</span>"," ","","exp-sent","gato.","","",""
"","null","html-keyboard-response","447","838764","0.0-3.0-0.370-0.370","<span style= ""font-size:30px; font-family: monospace"">+</span>","null","fixation","","","","",""
"","534","html-keyboard-response","448","839550","0.0-3.0-1.370","<span style=""font-size:30px; font-family: monospace"">Eu</span>"," ","","exp-sent","Eu","","",""
"","1309","html-keyboard-response","449","841110","0.0-3.0-1.371","<span style=""font-size:30px; font-family: monospace"">me</span>"," ","","exp-sent","me","","",""
"","1951","html-keyboard-response","450","843313","0.0-3.0-1.372","<span style=""font-size:30px; font-family: monospace"">divirto</span>"," ","","exp-sent","divirto","","",""
"","565","html-keyboard-response","451","844129","0.0-3.0-1.373","<span style=""font-size:30px; font-family: monospace"">em</span>"," ","","exp-sent","em","","",""
"","849","html-keyboard-response","452","845229","0.0-3.0-1.374","<span style=""font-size:30px; font-family: monospace"">festas</span>"," ","","exp-sent","festas","","",""
"","514","html-keyboard-response","453","845994","0.0-3.0-1.375","<span style=""font-size:30px; font-family: monospace"">de</span>"," ","","exp-sent","de","","",""
"","1114","html-keyboard-response","454","847360","0.0-3.0-1.376","<span style=""font-size:30px; font-family: monospace"">criança.</span>"," ","","exp-sent","criança.","","",""
"","null","html-keyboard-response","455","848612","0.0-3.0-0.377-0.377","<span style= ""font-size:30px; font-family: monospace"">+</span>","null","fixation","","","","",""
"","1560","html-keyboard-response","456","850424","0.0-3.0-1.377","<span style=""font-size:30px; font-family: monospace"">A</span>"," ","","exp-sent","A","","",""
"","944","html-keyboard-response","457","851620","0.0-3.0-1.378","<span style=""font-size:30px; font-family: monospace"">janela</span>"," ","","exp-sent","janela","","",""
"","495","html-keyboard-response","458","852367","0.0-3.0-1.379","<span style=""font-size:30px; font-family: monospace"">alta</span>"," ","","exp-sent","alta","","",""
"","505","html-keyboard-response","459","853123","0.0-3.0-1.380","<span style=""font-size:30px; font-family: monospace"">estava</span>"," ","","exp-sent","estava","","",""
"","1821","html-keyboard-response","460","855196","0.0-3.0-1.381","<span style=""font-size:30px; font-family: monospace"">quebrada</span>"," ","","exp-sent","quebrada","","",""
"","774","html-keyboard-response","461","856221","0.0-3.0-1.382","<span style=""font-size:30px; font-family: monospace"">desde</span>"," ","","exp-sent","desde","","",""
"","711","html-keyboard-response","462","857183","0.0-3.0-1.383","<span style=""font-size:30px; font-family: monospace"">ontem.</span>"," ","","comp","ontem.","","",""
"","4026","html-keyboard-response","463","861461","0.0-3.0-2.383-0.383","<span style=""font-size:30px; font-family: monospace"">A janela alta estava quebrada?</span>","s","","comp","","A janela alta estava quebrada?","sim","false"
"","null","html-keyboard-response","464","862963","0.0-3.0-0.384-0.384","<span style= ""font-size:30px; font-family: monospace"">+</span>","null","fixation","","","","",""
"","372","html-keyboard-response","465","863586","0.0-3.0-1.384","<span style=""font-size:30px; font-family: monospace"">O</span>"," ","","exp-sent","O","","",""
"","222","html-keyboard-response","466","864062","0.0-3.0-1.385","<span style=""font-size:30px; font-family: monospace"">texto</span>"," ","","exp-sent","texto","","",""
"","157","html-keyboard-response","467","864470","0.0-3.0-1.386","<span style=""font-size:30px; font-family: monospace"">trazia</span>"," ","","exp-sent","trazia","","",""
"","117","html-keyboard-response","468","864838","0.0-3.0-1.387","<span style=""font-size:30px; font-family: monospace"">um</span>"," ","","exp-sent","um","","",""
"","114","html-keyboard-response","469","865203","0.0-3.0-1.388","<span style=""font-size:30px; font-family: monospace"">argumento</span>"," ","","exp-sent","argumento","","",""
"","109","html-keyboard-response","470","865563","0.0-3.0-1.389","<span style=""font-size:30px; font-family: monospace"">central</span>"," ","","exp-sent","central","","",""
"","101","html-keyboard-response","471","865915","0.0-3.0-1.390","<span style=""font-size:30px; font-family: monospace"">para</span>"," ","","exp-sent","para","","",""
"","122","html-keyboard-response","472","866289","0.0-3.0-1.391","<span style=""font-size:30px; font-family: monospace"">a</span>"," ","","exp-sent","a","","",""
"","77","html-keyboard-response","473","866617","0.0-3.0-1.392","<span style=""font-size:30px; font-family: monospace"">conversa.</span>"," ","","exp-sent","conversa.","","",""
"","null","html-keyboard-response","474","867869","0.0-3.0-0.393-0.393","<span style= ""font-size:30px; font-family: monospace"">+</span>","null","fixation","","","","",""
"","166","html-keyboard-response","475","868286","0.0-3.0-1.393","<span style=""font-size:30px; font-family: monospace"">Ontem</span>"," ","","exp-sent","Ontem","","",""
"","135","html-keyboard-response","476","868673","0.0-3.0-1.394","<span style=""font-size:30px; font-family: monospace"">a</span>"," ","","exp-sent","a","","",""
"","484","html-keyboard-response","477","869410","0.0-3.0-1.395","<span style=""font-size:30px; font-family: monospace"">temperatura</span>"," ","","exp-sent","temperatura","","",""
"","219","html-keyboard-response","478","869880","0.0-3.0-1.396","<span style=""font-size:30px; font-family: monospace"">estava</span>"," ","","exp-sent","estava","","",""
"","314","html-keyboard-response","479","870445","0.0-3.0-1.397","<span style=""font-size:30px; font-family: monospace"">amena</span>"," ","","exp-sent","amena","","",""
"","402","html-keyboard-response","480","871098","0.0-3.0-1.398","<span style=""font-size:30px; font-family: monospace"">durante</span>"," ","","exp-sent","durante","","",""
"","209","html-keyboard-response","481","871558","0.0-3.0-1.399","<span style=""font-size:30px; font-family: monospace"">o</span>"," ","","exp-sent","o","","",""
"","861","html-keyboard-response","482","872671","0.0-3.0-1.400","<span style=""font-size:30px; font-family: monospace"">dia.</span>"," ","","exp-sent","dia.","","",""
"","null","html-keyboard-response","483","873922","0.0-3.0-0.401-0.401","<span style= ""font-size:30px; font-family: monospace"">+</span>","null","fixation","","","","",""
"","684","html-keyboard-response","484","874858","0.0-3.0-1.401","<span style=""font-size:30px; font-family: monospace"">Havia</span>"," ","","exp-sent","Havia","","",""
"","424","html-keyboard-response","485","875533","0.0-3.0-1.402","<span style=""font-size:30px; font-family: monospace"">um</span>"," ","","exp-sent","um","","",""
"","778","html-keyboard-response","486","876562","0.0-3.0-1.403","<span style=""font-size:30px; font-family: monospace"">machucado</span>"," ","","exp-sent","machucado","","",""
"","472","html-keyboard-response","487","877285","0.0-3.0-1.404","<span style=""font-size:30px; font-family: monospace"">no</span>"," ","","exp-sent","no","","",""
"","887","html-keyboard-response","488","878423","0.0-3.0-1.405","<span style=""font-size:30px; font-family: monospace"">dedo</span>"," ","","exp-sent","dedo","","",""
"","460","html-keyboard-response","489","879136","0.0-3.0-1.406","<span style=""font-size:30px; font-family: monospace"">da</span>"," ","","exp-sent","da","","",""
"","1071","html-keyboard-response","490","880458","0.0-3.0-1.407","<span style=""font-size:30px; font-family: monospace"">criança.</span>"," ","","exp-sent","criança.","","",""
"","null","html-keyboard-response","491","881710","0.0-3.0-0.408-0.408","<span style= ""font-size:30px; font-family: monospace"">+</span>","null","fixation","","","","",""
"","566","html-keyboard-response","492","882527","0.0-3.0-1.408","<span style=""font-size:30px; font-family: monospace"">A</span>"," ","","exp-sent","A","","",""
"","1244","html-keyboard-response","493","884022","0.0-3.0-1.409","<span style=""font-size:30px; font-family: monospace"">borboleta</span>"," ","","exp-sent","borboleta","","",""
"","1022","html-keyboard-response","494","885296","0.0-3.0-1.410","<span style=""font-size:30px; font-family: monospace"">pousou</span>"," ","","exp-sent","pousou","","",""
"","523","html-keyboard-response","495","886071","0.0-3.0-1.411","<span style=""font-size:30px; font-family: monospace"">no</span>"," ","","exp-sent","no","","",""
"","912","html-keyboard-response","496","887234","0.0-3.0-1.412","<span style=""font-size:30px; font-family: monospace"">ombro</span>"," ","","exp-sent","ombro","","",""
"","852","html-keyboard-response","497","888339","0.0-3.0-1.413","<span style=""font-size:30px; font-family: monospace"">daquela</span>"," ","","exp-sent","daquela","","",""
"","966","html-keyboard-response","498","889557","0.0-3.0-1.414","<span style=""font-size:30px; font-family: monospace"">moça.</span>"," ","","exp-sent","moça.","","",""
"","null","html-keyboard-response","499","890810","0.0-3.0-0.415-0.415","<span style= ""font-size:30px; font-family: monospace"">+</span>","null","fixation","","","","",""
"","482","html-keyboard-response","500","891543","0.0-3.0-1.415","<span style=""font-size:30px; font-family: monospace"">Eu</span>"," ","","exp-sent","Eu","","",""
"","498","html-keyboard-response","501","892293","0.0-3.0-1.416","<span style=""font-size:30px; font-family: monospace"">quero</span>"," ","","exp-sent","quero","","",""
"","409","html-keyboard-response","502","892952","0.0-3.0-1.417","<span style=""font-size:30px; font-family: monospace"">um</span>"," ","","exp-sent","um","","",""
"","1574","html-keyboard-response","503","894777","0.0-3.0-1.418","<span style=""font-size:30px; font-family: monospace"">namorado</span>"," ","","exp-sent","namorado","","",""
"","800","html-keyboard-response","504","895830","0.0-3.0-1.419","<span style=""font-size:30px; font-family: monospace"">honesto</span>"," ","","exp-sent","honesto","","",""
"","488","html-keyboard-response","505","896569","0.0-3.0-1.420","<span style=""font-size:30px; font-family: monospace"">e</span>"," ","","exp-sent","e","","",""
"","932","html-keyboard-response","506","897752","0.0-3.0-1.421","<span style=""font-size:30px; font-family: monospace"">compreensivo.</span>"," ","","comp","compreensivo.","","",""
"","5796","html-keyboard-response","507","903800","0.0-3.0-2.421-0.421","<span style=""font-size:30px; font-family: monospace"">Eu quero um namorado honesto?</span>","s","","comp","","Eu quero um namorado honesto?","sim","false"
"","null","html-keyboard-response","508","905302","0.0-3.0-0.422-0.422","<span style= ""font-size:30px; font-family: monospace"">+</span>","null","fixation","","","","",""
"","347","html-keyboard-response","509","905901","0.0-3.0-1.422","<span style=""font-size:30px; font-family: monospace"">A</span>"," ","","exp-sent","A","","",""
"","145","html-keyboard-response","510","906297","0.0-3.0-1.423","<span style=""font-size:30px; font-family: monospace"">força</span>"," ","","exp-sent","força","","",""
"","106","html-keyboard-response","511","906654","0.0-3.0-1.424","<span style=""font-size:30px; font-family: monospace"">d'água</span>"," ","","exp-sent","d'água","","",""
"","115","html-keyboard-response","512","907020","0.0-3.0-1.425","<span style=""font-size:30px; font-family: monospace"">estava</span>"," ","","exp-sent","estava","","",""
"","85","html-keyboard-response","513","907356","0.0-3.0-1.426","<span style=""font-size:30px; font-family: monospace"">normal</span>"," ","","exp-sent","normal","","",""
"","133","html-keyboard-response","514","907740","0.0-3.0-1.427","<span style=""font-size:30px; font-family: monospace"">naquele</span>"," ","","exp-sent","naquele","","",""
"","101","html-keyboard-response","515","908092","0.0-3.0-1.428","<span style=""font-size:30px; font-family: monospace"">dia.</span>"," ","","exp-sent","dia.","","",""
"","null","html-keyboard-response","516","909344","0.0-3.0-0.429-0.429","<span style= ""font-size:30px; font-family: monospace"">+</span>","null","fixation","","","","",""
"","32","html-keyboard-response","517","909628","0.0-3.0-1.429","<span style=""font-size:30px; font-family: monospace"">A</span>"," ","","exp-sent","A","","",""
"","111","html-keyboard-response","518","909990","0.0-3.0-1.430","<span style=""font-size:30px; font-family: monospace"">médica</span>"," ","","exp-sent","médica","","",""
"","170","html-keyboard-response","519","910412","0.0-3.0-1.431","<span style=""font-size:30px; font-family: monospace"">ofereceu</span>"," ","","exp-sent","ofereceu","","",""
"","159","html-keyboard-response","520","910821","0.0-3.0-1.432","<span style=""font-size:30px; font-family: monospace"">a</span>"," ","","exp-sent","a","","",""
"","180","html-keyboard-response","521","911253","0.0-3.0-1.433","<span style=""font-size:30px; font-family: monospace"">pomada</span>"," ","","exp-sent","pomada","","",""
"","230","html-keyboard-response","522","911735","0.0-3.0-1.434","<span style=""font-size:30px; font-family: monospace"">para</span>"," ","","exp-sent","para","","",""
"","159","html-keyboard-response","523","912145","0.0-3.0-1.435","<span style=""font-size:30px; font-family: monospace"">o</span>"," ","","exp-sent","o","","",""
"","1126","html-keyboard-response","524","913523","0.0-3.0-1.436","<span style=""font-size:30px; font-family: monospace"">avô.</span>"," ","","exp-sent","avô.","","",""
"","null","html-keyboard-response","525","914776","0.0-3.0-0.437-0.437","<span style= ""font-size:30px; font-family: monospace"">+</span>","null","fixation","","","","",""
"","1344","html-keyboard-response","526","916371","0.0-3.0-1.437","<span style=""font-size:30px; font-family: monospace"">Ele</span>"," ","","exp-sent","Ele","","",""
"","643","html-keyboard-response","527","917265","0.0-3.0-1.438","<span style=""font-size:30px; font-family: monospace"">conversou</span>"," ","","exp-sent","conversou","","",""
"","414","html-keyboard-response","528","917930","0.0-3.0-1.439","<span style=""font-size:30px; font-family: monospace"">com</span>"," ","","exp-sent","com","","",""
"","115","html-keyboard-response","529","918296","0.0-3.0-1.440","<span style=""font-size:30px; font-family: monospace"">o</span>"," ","","exp-sent","o","","",""
"","470","html-keyboard-response","530","919017","0.0-3.0-1.441","<span style=""font-size:30px; font-family: monospace"">patrão</span>"," ","","exp-sent","patrão","","",""
"","303","html-keyboard-response","531","919571","0.0-3.0-1.442","<span style=""font-size:30px; font-family: monospace"">durante</span>"," ","","exp-sent","durante","","",""
"","468","html-keyboard-response","532","920290","0.0-3.0-1.443","<span style=""font-size:30px; font-family: monospace"">a</span>"," ","","exp-sent","a","","",""
"","929","html-keyboard-response","533","921470","0.0-3.0-1.444","<span style=""font-size:30px; font-family: monospace"">tarde.</span>"," ","","exp-sent","tarde.","","",""
"","null","html-keyboard-response","534","922722","0.0-3.0-0.445-0.445","<span style= ""font-size:30px; font-family: monospace"">+</span>","null","fixation","","","","",""
"","940","html-keyboard-response","535","923913","0.0-3.0-1.445","<span style=""font-size:30px; font-family: monospace"">Algumas</span>"," ","","exp-sent","Algumas","","",""
"","579","html-keyboard-response","536","924744","0.0-3.0-1.446","<span style=""font-size:30px; font-family: monospace"">pessoas</span>"," ","","exp-sent","pessoas","","",""
"","879","html-keyboard-response","537","925875","0.0-3.0-1.447","<span style=""font-size:30px; font-family: monospace"">acreditam</span>"," ","","exp-sent","acreditam","","",""
"","455","html-keyboard-response","538","926581","0.0-3.0-1.448","<span style=""font-size:30px; font-family: monospace"">em</span>"," ","","exp-sent","em","","",""
"","662","html-keyboard-response","539","927495","0.0-3.0-1.449","<span style=""font-size:30px; font-family: monospace"">espíritos</span>"," ","","exp-sent","espíritos","","",""
"","438","html-keyboard-response","540","928183","0.0-3.0-1.450","<span style=""font-size:30px; font-family: monospace"">e</span>"," ","","exp-sent","e","","",""
"","501","html-keyboard-response","541","928936","0.0-3.0-1.451","<span style=""font-size:30px; font-family: monospace"">em</span>"," ","","exp-sent","em","","",""
"","805","html-keyboard-response","542","929992","0.0-3.0-1.452","<span style=""font-size:30px; font-family: monospace"">outras</span>"," ","","exp-sent","outras","","",""
"","848","html-keyboard-response","543","931091","0.0-3.0-1.453","<span style=""font-size:30px; font-family: monospace"">vidas.</span>"," ","","exp-sent","vidas.","","",""
"","null","html-keyboard-response","544","932346","0.0-3.0-0.454-0.454","<span style= ""font-size:30px; font-family: monospace"">+</span>","null","fixation","","","","",""
"","490","html-keyboard-response","545","933087","0.0-3.0-1.454","<span style=""font-size:30px; font-family: monospace"">Ela</span>"," ","","exp-sent","Ela","","",""
"","433","html-keyboard-response","546","933771","0.0-3.0-1.455","<span style=""font-size:30px; font-family: monospace"">gosta</span>"," ","","exp-sent","gosta","","",""
"","492","html-keyboard-response","547","934515","0.0-3.0-1.456","<span style=""font-size:30px; font-family: monospace"">de</span>"," ","","exp-sent","de","","",""
"","961","html-keyboard-response","548","935728","0.0-3.0-1.457","<span style=""font-size:30px; font-family: monospace"">estudar</span>"," ","","exp-sent","estudar","","",""
"","600","html-keyboard-response","549","936580","0.0-3.0-1.458","<span style=""font-size:30px; font-family: monospace"">matemática</span>"," ","","exp-sent","matemática","","",""
"","452","html-keyboard-response","550","937284","0.0-3.0-1.459","<span style=""font-size:30px; font-family: monospace"">com</span>"," ","","exp-sent","com","","",""
"","774","html-keyboard-response","551","938309","0.0-3.0-1.460","<span style=""font-size:30px; font-family: monospace"">colegas.</span>"," ","","comp","colegas.","","",""
"","3548","html-keyboard-response","552","942109","0.0-3.0-2.460-0.460","<span style=""font-size:30px; font-family: monospace"">Ela gosta de estudar física?</span>","n","","comp","","Ela gosta de estudar física?","não","false"
"","null","html-keyboard-response","553","943610","0.0-3.0-0.461-0.461","<span style= ""font-size:30px; font-family: monospace"">+</span>","null","fixation","","","","",""
"","18","html-keyboard-response","554","943880","0.0-3.0-1.461","<span style=""font-size:30px; font-family: monospace"">No</span>"," ","","exp-sent","No","","",""
"","648","html-keyboard-response","555","944778","0.0-3.0-1.462","<span style=""font-size:30px; font-family: monospace"">passado</span>"," ","","exp-sent","passado","","",""
"","164","html-keyboard-response","556","945194","0.0-3.0-1.463","<span style=""font-size:30px; font-family: monospace"">houve</span>"," ","","exp-sent","houve","","",""
"","110","html-keyboard-response","557","945555","0.0-3.0-1.464","<span style=""font-size:30px; font-family: monospace"">uma</span>"," ","","exp-sent","uma","","",""
"","124","html-keyboard-response","558","945931","0.0-3.0-1.465","<span style=""font-size:30px; font-family: monospace"">rebelião</span>"," ","","exp-sent","rebelião","","",""
"","106","html-keyboard-response","559","946288","0.0-3.0-1.466","<span style=""font-size:30px; font-family: monospace"">nesta</span>"," ","","exp-sent","nesta","","",""
"","110","html-keyboard-response","560","946650","0.0-3.0-1.467","<span style=""font-size:30px; font-family: monospace"">cidade.</span>"," ","","exp-sent","cidade.","","",""
"","null","html-keyboard-response","561","947902","0.0-3.0-0.468-0.468","<span style= ""font-size:30px; font-family: monospace"">+</span>","null","fixation","","","","",""
"","48","html-keyboard-response","562","948201","0.0-3.0-1.468","<span style=""font-size:30px; font-family: monospace"">Ele</span>"," ","","exp-sent","Ele","","",""
"","121","html-keyboard-response","563","948573","0.0-3.0-1.469","<span style=""font-size:30px; font-family: monospace"">fundou</span>"," ","","exp-sent","fundou","","",""
"","125","html-keyboard-response","564","948950","0.0-3.0-1.470","<span style=""font-size:30px; font-family: monospace"">uma</span>"," ","","exp-sent","uma","","",""
"","141","html-keyboard-response","565","949342","0.0-3.0-1.471","<span style=""font-size:30px; font-family: monospace"">empresa</span>"," ","","exp-sent","empresa","","",""
"","97","html-keyboard-response","566","949692","0.0-3.0-1.472","<span style=""font-size:30px; font-family: monospace"">privada</span>"," ","","exp-sent","privada","","",""
"","140","html-keyboard-response","567","950083","0.0-3.0-1.473","<span style=""font-size:30px; font-family: monospace"">sem</span>"," ","","exp-sent","sem","","",""
"","132","html-keyboard-response","568","950466","0.0-3.0-1.474","<span style=""font-size:30px; font-family: monospace"">ajuda.</span>"," ","","exp-sent","ajuda.","","",""
"","null","html-keyboard-response","569","951720","0.0-3.0-0.475-0.475","<span style= ""font-size:30px; font-family: monospace"">+</span>","null","fixation","","","","",""
"","476","html-keyboard-response","570","952448","0.0-3.0-1.475","<span style=""font-size:30px; font-family: monospace"">As</span>"," ","","exp-sent","As","","",""
"","400","html-keyboard-response","571","953099","0.0-3.0-1.476","<span style=""font-size:30px; font-family: monospace"">meninas</span>"," ","","exp-sent","meninas","","",""
"","38","html-keyboard-response","572","953388","0.0-3.0-1.477","<span style=""font-size:30px; font-family: monospace"">encontraram</span>"," ","","exp-sent","encontraram","","",""
"","59","html-keyboard-response","573","953701","0.0-3.0-1.478","<span style=""font-size:30px; font-family: monospace"">um</span>"," ","","exp-sent","um","","",""
"","236","html-keyboard-response","574","954188","0.0-3.0-1.479","<span style=""font-size:30px; font-family: monospace"">rato</span>"," ","","exp-sent","rato","","",""
"","128","html-keyboard-response","575","954567","0.0-3.0-1.480","<span style=""font-size:30px; font-family: monospace"">dentro</span>"," ","","exp-sent","dentro","","",""
"","185","html-keyboard-response","576","955003","0.0-3.0-1.481","<span style=""font-size:30px; font-family: monospace"">de</span>"," ","","exp-sent","de","","",""
"","201","html-keyboard-response","577","955455","0.0-3.0-1.482","<span style=""font-size:30px; font-family: monospace"">casa.</span>"," ","","exp-sent","casa.","","",""
"","null","html-keyboard-response","578","956707","0.0-3.0-0.483-0.483","<span style= ""font-size:30px; font-family: monospace"">+</span>","null","fixation","","","","",""
"","532","html-keyboard-response","579","957490","0.0-3.0-1.483","<span style=""font-size:30px; font-family: monospace"">O</span>"," ","","exp-sent","O","","",""
"","522","html-keyboard-response","580","958264","0.0-3.0-1.484","<span style=""font-size:30px; font-family: monospace"">texto</span>"," ","","exp-sent","texto","","",""
"","385","html-keyboard-response","581","958901","0.0-3.0-1.485","<span style=""font-size:30px; font-family: monospace"">tinha</span>"," ","","exp-sent","tinha","","",""
"","557","html-keyboard-response","582","959708","0.0-3.0-1.486","<span style=""font-size:30px; font-family: monospace"">ideias</span>"," ","","exp-sent","ideias","","",""
"","409","html-keyboard-response","583","960369","0.0-3.0-1.487","<span style=""font-size:30px; font-family: monospace"">vagas</span>"," ","","exp-sent","vagas","","",""
"","780","html-keyboard-response","584","961400","0.0-3.0-1.488","<span style=""font-size:30px; font-family: monospace"">e</span>"," ","","exp-sent","e","","",""
