"view_history","rt","trial_type","trial_index","time_elapsed","internal_node_id","stimulus","response","portuguese","kreyol"
"[{""page_index"":0,""viewing_time"":1769}]","1769","instructions","0","1774","0.0-0.0","","","",""
"","null","html-keyboard-response","1","2376","0.0-1.0-0.0","+","null","",""
"","4920","audio-keyboard-response","2","7821","0.0-1.0-1.0","../audio/teste-vocab--15.mp3","s","flecha","flèch"
"","null","html-keyboard-response","3","8321","0.0-1.0-0.1","+","null","",""
"","2339","audio-keyboard-response","4","11643","0.0-1.0-1.1","../audio/teste-vocab--33.mp3","s","uniforme","inifòm"
"","null","html-keyboard-response","5","12144","0.0-1.0-0.2","+","null","",""
"","2168","audio-keyboard-response","6","15313","0.0-1.0-1.2","../audio/teste-vocab--28.mp3","s","águia","èg"
"","null","html-keyboard-response","7","15814","0.0-1.0-0.3","+","null","",""
"","2040","audio-keyboard-response","8","18862","0.0-1.0-1.3","../audio/teste-vocab--10.mp3","s","corneta","kòn"
"","null","html-keyboard-response","9","19363","0.0-1.0-0.4","+","null","",""
"","4371","audio-keyboard-response","10","24718","0.0-1.0-1.4","../audio/teste-vocab--126.mp3","n","ambulante","promennen"
"","null","html-keyboard-response","11","25219","0.0-1.0-0.5","+","null","",""
"","2168","audio-keyboard-response","12","28508","0.0-1.0-1.5","../audio/teste-vocab--06.mp3","s","barco","bato"
"","null","html-keyboard-response","13","29010","0.0-1.0-0.6","+","null","",""
"","2499","audio-keyboard-response","14","32563","0.0-1.0-1.6","../audio/teste-vocab--59.mp3","s","par","pè"
"","null","html-keyboard-response","15","33064","0.0-1.0-0.7","+","null","",""
"","3728","audio-keyboard-response","16","37874","0.0-1.0-1.7","../audio/teste-vocab--89.mp3","s","classificar","klasifika"
"","null","html-keyboard-response","17","38375","0.0-1.0-0.8","+","null","",""
"","2149","audio-keyboard-response","18","41533","0.0-1.0-1.8","../audio/teste-vocab--47.mp3","s","envelope","anvlope"
"","null","html-keyboard-response","19","42034","0.0-1.0-0.9","+","null","",""
"","1811","audio-keyboard-response","20","44838","0.0-1.0-1.9","../audio/teste-vocab--121.mp3","s","atônito","sezi"
"","null","html-keyboard-response","21","45339","0.0-1.0-0.10","+","null","",""
"","1360","audio-keyboard-response","22","47735","0.0-1.0-1.10","../audio/teste-vocab--26.mp3","s","cotovelo","koud"
"","null","html-keyboard-response","23","48237","0.0-1.0-0.11","+","null","",""
"","1520","audio-keyboard-response","24","50738","0.0-1.0-1.11","../audio/teste-vocab--14.mp3","s","ler","li"
"","null","html-keyboard-response","25","51239","0.0-1.0-0.12","+","null","",""
"","2371","audio-keyboard-response","26","54626","0.0-1.0-1.12","../audio/teste-vocab--128.mp3","s","incisivo","ensisiv"
"","null","html-keyboard-response","27","55128","0.0-1.0-0.13","+","null","",""
"","1549","audio-keyboard-response","28","57649","0.0-1.0-1.13","../audio/teste-vocab--18.mp3","s","abelha","myèl"
"","null","html-keyboard-response","29","58151","0.0-1.0-0.14","+","null","",""
"","2821","audio-keyboard-response","30","62048","0.0-1.0-1.14","../audio/teste-vocab--103.mp3","s","utensílio","istansil"
"","null","html-keyboard-response","31","62550","0.0-1.0-0.15","+","null","",""
"","2560","audio-keyboard-response","32","65645","0.0-1.0-1.15","../audio/teste-vocab--85.mp3","s","trio","trio"
"","null","html-keyboard-response","33","66146","0.0-1.0-0.16","+","null","",""
"","1739","audio-keyboard-response","34","68870","0.0-1.0-1.16","../audio/teste-vocab--53.mp3","s","orientar","oryante"
"","null","html-keyboard-response","35","69373","0.0-1.0-0.17","+","null","",""
"","1981","audio-keyboard-response","36","72381","0.0-1.0-1.17","../audio/teste-vocab--67.mp3","s","corrimão","ranp"
"","null","html-keyboard-response","37","72888","0.0-1.0-0.18","+","null","",""
"","1709","audio-keyboard-response","38","75598","0.0-1.0-1.18","../audio/teste-vocab--71.mp3","s","caule","tij"
"","null","html-keyboard-response","39","76100","0.0-1.0-0.19","+","null","",""
"","1779","audio-keyboard-response","40","78882","0.0-1.0-1.19","../audio/teste-vocab--41.mp3","s","médico","doktè,"
"","null","html-keyboard-response","41","79384","0.0-1.0-0.20","+","null","",""
"","2339","audio-keyboard-response","42","82711","0.0-1.0-1.20","../audio/teste-vocab--109.mp3","s","anfíbio","anfibyen"
"","null","html-keyboard-response","43","83213","0.0-1.0-0.21","+","null","",""
"","1749","audio-keyboard-response","44","85953","0.0-1.0-1.21","../audio/teste-vocab--90.mp3","s","carniça","kanivò"
"","null","html-keyboard-response","45","86454","0.0-1.0-0.22","+","null","",""
"","1880","audio-keyboard-response","46","89356","0.0-1.0-1.22","../audio/teste-vocab--09.mp3","s","vela","bouji"
"","null","html-keyboard-response","47","89856","0.0-1.0-0.23","+","null","",""
"","2440","audio-keyboard-response","48","93290","0.0-1.0-1.23","../audio/teste-vocab--112.mp3","s","aparição","aparisyon"
"","null","html-keyboard-response","49","93792","0.0-1.0-0.24","+","null","",""
"","1880","audio-keyboard-response","50","96659","0.0-1.0-1.24","../audio/teste-vocab--66.mp3","s","cooperação","koperasyon"
"","null","html-keyboard-response","51","97160","0.0-1.0-0.25","+","null","",""
"","1859","audio-keyboard-response","52","100004","0.0-1.0-1.25","../audio/teste-vocab--124.mp3","s","obelisco","obelisk"
"","null","html-keyboard-response","53","100510","0.0-1.0-0.26","+","null","",""
"","1880","audio-keyboard-response","54","103396","0.0-1.0-1.26","../audio/teste-vocab--98.mp3","s","instruir","enstwi"
"","null","html-keyboard-response","55","103898","0.0-1.0-0.27","+","null","",""
"","2021","audio-keyboard-response","56","106971","0.0-1.0-1.27","../audio/teste-vocab--110.mp3","s","prodígio","pwodij"
"","null","html-keyboard-response","57","107472","0.0-1.0-0.28","+","null","",""
"","1869","audio-keyboard-response","58","110351","0.0-1.0-1.28","../audio/teste-vocab--60.mp3","s","secretaria","sekretè"
"","null","html-keyboard-response","59","110853","0.0-1.0-0.29","+","null","",""
"","6832","audio-keyboard-response","60","118827","0.0-1.0-1.29","../audio/teste-vocab--83.mp3","n","morsa","mòs"
"","null","html-keyboard-response","61","119328","0.0-1.0-0.30","+","null","",""
"","2200","audio-keyboard-response","62","122522","0.0-1.0-1.30","../audio/teste-vocab--49.mp3","s","humano","moun"
"","null","html-keyboard-response","63","123023","0.0-1.0-0.31","+","null","",""
"","3181","audio-keyboard-response","64","126217","0.0-1.0-1.31","../audio/teste-vocab--25.mp3","s","canguru","kanguwou"
"","null","html-keyboard-response","65","126719","0.0-1.0-0.32","+","null","",""
"","3611","audio-keyboard-response","66","131418","0.0-1.0-1.32","../audio/teste-vocab--42.mp3","s","isolamento","izòlman"
"","null","html-keyboard-response","67","131920","0.0-1.0-0.33","+","null","",""
"","2389","audio-keyboard-response","68","135326","0.0-1.0-1.33","../audio/teste-vocab--34.mp3","s","tronco","twon"
"","null","html-keyboard-response","69","135830","0.0-1.0-0.34","+","null","",""
"","1699","audio-keyboard-response","70","138559","0.0-1.0-1.34","../audio/teste-vocab--30.mp3","s","pintor","pent"
"","null","html-keyboard-response","71","139061","0.0-1.0-0.35","+","null","",""
"","2261","audio-keyboard-response","72","141341","0.0-1.0-1.35","../audio/teste-vocab--92.mp3","s","esférico","won"
"","null","html-keyboard-response","73","141842","0.0-1.0-0.36","+","null","",""
"","1960","audio-keyboard-response","74","144853","0.0-1.0-1.36","../audio/teste-vocab--32.mp3","s","descascar","dekale"
"","null","html-keyboard-response","75","145354","0.0-1.0-0.37","+","null","",""
"","1640","audio-keyboard-response","76","148224","0.0-1.0-1.37","../audio/teste-vocab--27.mp3","s","rio","rivyè"
"","null","html-keyboard-response","77","148725","0.0-1.0-0.38","+","null","",""
"","2080","audio-keyboard-response","78","151784","0.0-1.0-1.38","../audio/teste-vocab--69.mp3","s","pingar","degoute"
"","null","html-keyboard-response","79","152285","0.0-1.0-0.39","+","null","",""
"","10189","audio-keyboard-response","80","163448","0.0-1.0-1.39","../audio/teste-vocab--19.mp3","n","hora","è"
"","null","html-keyboard-response","81","163948","0.0-1.0-0.40","+","null","",""
"","2659","audio-keyboard-response","82","167605","0.0-1.0-1.40","../audio/teste-vocab--52.mp3","s","construção","konstriksyon"
"","null","html-keyboard-response","83","168110","0.0-1.0-0.41","+","null","",""
"","2320","audio-keyboard-response","84","171432","0.0-1.0-1.41","../audio/teste-vocab--100.mp3","s","consumir","konsome"
"","null","html-keyboard-response","85","171933","0.0-1.0-0.42","+","null","",""
"","1920","audio-keyboard-response","86","174855","0.0-1.0-1.42","../audio/teste-vocab--87.mp3","s","ave","zwazo"
"","null","html-keyboard-response","87","175357","0.0-1.0-0.43","+","null","",""
"","2160","audio-keyboard-response","88","178491","0.0-1.0-1.43","../audio/teste-vocab--79.mp3","s","moldura"," chanbranl"
"","null","html-keyboard-response","89","178993","0.0-1.0-0.44","+","null","",""
"","2320","audio-keyboard-response","90","182404","0.0-1.0-1.44","../audio/teste-vocab--05.mp3","s","limpar","netwaye"
"","null","html-keyboard-response","91","182905","0.0-1.0-0.45","+","null","",""
"","2829","audio-keyboard-response","92","186251","0.0-1.0-1.45","../audio/teste-vocab--61.mp3","s","iluminação","iliminasyon"
"","null","html-keyboard-response","93","186753","0.0-1.0-0.46","+","null","",""
"","2200","audio-keyboard-response","94","189989","0.0-1.0-1.46","../audio/teste-vocab--94.mp3","s","paralelo","paralèl"
"","null","html-keyboard-response","95","190490","0.0-1.0-0.47","+","null","",""
"","2509","audio-keyboard-response","96","194108","0.0-1.0-1.47","../audio/teste-vocab--115.mp3","s","perpendicular","pèpandikilè"
"","null","html-keyboard-response","97","194609","0.0-1.0-0.48","+","null","",""
"","4781","audio-keyboard-response","98","200380","0.0-1.0-1.48","../audio/teste-vocab--36.mp3","s","grupo","gwoup"
"","null","html-keyboard-response","99","200882","0.0-1.0-0.49","+","null","",""
"","1651","audio-keyboard-response","100","203054","0.0-1.0-1.49","../audio/teste-vocab--02.mp3","s","homem","gason"
"","null","html-keyboard-response","101","203556","0.0-1.0-0.50","+","null","",""
"","2011","audio-keyboard-response","102","206546","0.0-1.0-1.50","../audio/teste-vocab--38.mp3","s","cerimônia","seremoni"
"","null","html-keyboard-response","103","207047","0.0-1.0-0.51","+","null","",""
"","2712","audio-keyboard-response","104","210740","0.0-1.0-1.51","../audio/teste-vocab--39.mp3","s","cobra","koulèv"
"","null","html-keyboard-response","105","211241","0.0-1.0-0.52","+","null","",""
"","2709","audio-keyboard-response","106","214935","0.0-1.0-1.52","../audio/teste-vocab--78.mp3","s","quarteto","qwatèt"
"","null","html-keyboard-response","107","215435","0.0-1.0-0.53","+","null","",""
"","3680","audio-keyboard-response","108","220173","0.0-1.0-1.53","../audio/teste-vocab--113.mp3","s","ascender","limen"
"","null","html-keyboard-response","109","220675","0.0-1.0-0.54","+","null","",""
"","10819","audio-keyboard-response","110","232485","0.0-1.0-1.54","../audio/teste-vocab--17.mp3","s","móvel","mobil"
"","null","html-keyboard-response","111","232987","0.0-1.0-0.55","+","null","",""
"","10069","audio-keyboard-response","112","244041","0.0-1.0-1.55","../audio/teste-vocab--127.mp3","n","côncavo","konkav"
"","null","html-keyboard-response","113","244545","0.0-1.0-0.56","+","null","",""
"","2461","audio-keyboard-response","114","247983","0.0-1.0-1.56","../audio/teste-vocab--84.mp3","s","confiar","konfye"
"","null","html-keyboard-response","115","248484","0.0-1.0-0.57","+","null","",""
"","1600","audio-keyboard-response","116","251070","0.0-1.0-1.57","../audio/teste-vocab--45.mp3","s","dentista","dantis"
"","null","html-keyboard-response","117","251571","0.0-1.0-0.58","+","null","",""
"","5299","audio-keyboard-response","118","257915","0.0-1.0-1.58","../audio/teste-vocab--82.mp3","s","roer","ronje"
"","null","html-keyboard-response","119","258416","0.0-1.0-0.59","+","null","",""
"","2200","audio-keyboard-response","120","261644","0.0-1.0-1.59","../audio/teste-vocab--51.mp3","s","recolher","kolekte"
"","null","html-keyboard-response","121","262146","0.0-1.0-0.60","+","null","",""
"","1880","audio-keyboard-response","122","265030","0.0-1.0-1.60","../audio/teste-vocab--116.mp3","s","vestuário","vestyè"
"","null","html-keyboard-response","123","265531","0.0-1.0-0.61","+","null","",""
"","1749","audio-keyboard-response","124","268273","0.0-1.0-1.61","../audio/teste-vocab--54.mp3","s","arbusto","raje"
"","null","html-keyboard-response","125","268774","0.0-1.0-0.62","+","null","",""
"","1779","audio-keyboard-response","126","271563","0.0-1.0-1.62","../audio/teste-vocab--08.mp3","s","vaca","vach"
"","null","html-keyboard-response","127","272065","0.0-1.0-0.63","+","null","",""
"","1251","audio-keyboard-response","128","274369","0.0-1.0-1.63","../audio/teste-vocab--21.mp3","s","baleia","balèn"
"","null","html-keyboard-response","129","274877","0.0-1.0-0.64","+","null","",""
"","2352","audio-keyboard-response","130","278304","0.0-1.0-1.64","../audio/teste-vocab--74.mp3","s","desilusão","dezilizyon"
"","null","html-keyboard-response","131","278806","0.0-1.0-0.65","+","null","",""
"","1571","audio-keyboard-response","132","281378","0.0-1.0-1.65","../audio/teste-vocab--01.mp3","s","boneca","pope"
"","null","html-keyboard-response","133","281879","0.0-1.0-0.66","+","null","",""
"","1949","audio-keyboard-response","134","284798","0.0-1.0-1.66","../audio/teste-vocab--11.mp3","s","joelho","jenou"
"","null","html-keyboard-response","135","285300","0.0-1.0-0.67","+","null","",""
"","1888","audio-keyboard-response","136","288231","0.0-1.0-1.67","../audio/teste-vocab--57.mp3","s","raiz","rasin"
"","null","html-keyboard-response","137","288733","0.0-1.0-0.68","+","null","",""
"","1901","audio-keyboard-response","138","291289","0.0-1.0-1.68","../audio/teste-vocab--120.mp3","s","induzir","pwovoke"
"","null","html-keyboard-response","139","291791","0.0-1.0-0.69","+","null","",""
"","3901","audio-keyboard-response","140","296730","0.0-1.0-1.69","../audio/teste-vocab--43.mp3","s","mecânico","mekanisyen"
"","null","html-keyboard-response","141","297231","0.0-1.0-0.70","+","null","",""
"","2680","audio-keyboard-response","142","300902","0.0-1.0-1.70","../audio/teste-vocab--76.mp3","s","arquivar","achive"
"","null","html-keyboard-response","143","301404","0.0-1.0-0.71","+","null","",""
"","1480","audio-keyboard-response","144","303855","0.0-1.0-1.71","../audio/teste-vocab--108.mp3","s","moradia","kay"
"","null","html-keyboard-response","145","304356","0.0-1.0-0.72","+","null","",""
"","3000","audio-keyboard-response","146","308341","0.0-1.0-1.72","../audio/teste-vocab--130.mp3","s","gentil","dou"
"","null","html-keyboard-response","147","308842","0.0-1.0-0.73","+","null","",""
"","1720","audio-keyboard-response","148","311556","0.0-1.0-1.73","../audio/teste-vocab--117.mp3","s","córnea","kòn"
"","null","html-keyboard-response","149","312058","0.0-1.0-0.74","+","null","",""
"","2960","audio-keyboard-response","150","316030","0.0-1.0-1.74","../audio/teste-vocab--23.mp3","s","acariciar","karese"
"","null","html-keyboard-response","151","316531","0.0-1.0-0.75","+","null","",""
"","1659","audio-keyboard-response","152","319193","0.0-1.0-1.75","../audio/teste-vocab--97.mp3","s","frágil","frajil"
"","null","html-keyboard-response","153","319694","0.0-1.0-0.76","+","null","",""
"","2080","audio-keyboard-response","154","322785","0.0-1.0-1.76","../audio/teste-vocab--50.mp3","s","artista","atis"
"","null","html-keyboard-response","155","323287","0.0-1.0-0.77","+","null","",""
"","1768","audio-keyboard-response","156","326035","0.0-1.0-1.77","../audio/teste-vocab--70.mp3","s","funil","antónwa"
"","null","html-keyboard-response","157","326536","0.0-1.0-0.78","+","null","",""
"","1720","audio-keyboard-response","158","329269","0.0-1.0-1.78","../audio/teste-vocab--86.mp3","s","pensar","panse"
"","null","html-keyboard-response","159","329770","0.0-1.0-0.79","+","null","",""
"","1829","audio-keyboard-response","160","332604","0.0-1.0-1.79","../audio/teste-vocab--75.mp3","s","carpinteiro","chapantye"
"","null","html-keyboard-response","161","333105","0.0-1.0-0.80","+","null","",""
"","2288","audio-keyboard-response","162","335910","0.0-1.0-1.80","../audio/teste-vocab--16.mp3","s","pescoço","kou"
"","null","html-keyboard-response","163","336412","0.0-1.0-0.81","+","null","",""
"","1939","audio-keyboard-response","164","339398","0.0-1.0-1.81","../audio/teste-vocab--111.mp3","s","jubilosa","rejwisans"
"","null","html-keyboard-response","165","339900","0.0-1.0-0.82","+","null","",""
"","1869","audio-keyboard-response","166","342270","0.0-1.0-1.82","../audio/teste-vocab--04.mp3","s","roda","wonn"
"","null","html-keyboard-response","167","342771","0.0-1.0-0.83","+","null","",""
"","5011","audio-keyboard-response","168","348827","0.0-1.0-1.83","../audio/teste-vocab--29.mp3","s","rasgar","chire"
"","null","html-keyboard-response","169","349328","0.0-1.0-0.84","+","null","",""
"","1731","audio-keyboard-response","170","352049","0.0-1.0-1.84","../audio/teste-vocab--03.mp3","s","balançar","balanse"
"","null","html-keyboard-response","171","352550","0.0-1.0-0.85","+","null","",""
"","2339","audio-keyboard-response","172","355915","0.0-1.0-1.85","../audio/teste-vocab--93.mp3","s","felino","leopa"
"","null","html-keyboard-response","173","356416","0.0-1.0-0.86","+","null","",""
"","6488","audio-keyboard-response","174","363913","0.0-1.0-1.86","../audio/teste-vocab--129.mp3","s","elipse","elips"
"","null","html-keyboard-response","175","364414","0.0-1.0-0.87","+","null","",""
"","1939","audio-keyboard-response","176","367360","0.0-1.0-1.87","../audio/teste-vocab--106.mp3","s","lubrificar","grese"
"","null","html-keyboard-response","177","367861","0.0-1.0-0.88","+","null","",""
"","1509","audio-keyboard-response","178","370348","0.0-1.0-1.88","../audio/teste-vocab--88.mp3","s","portátil","pòtab"
"","null","html-keyboard-response","179","370849","0.0-1.0-0.89","+","null","",""
"","1920","audio-keyboard-response","180","373764","0.0-1.0-1.89","../audio/teste-vocab--102.mp3","s","arrogante","arogan"
"","null","html-keyboard-response","181","374266","0.0-1.0-0.90","+","null","",""
"","1851","audio-keyboard-response","182","377134","0.0-1.0-1.90","../audio/teste-vocab--35.mp3","s","líquido","likid"
"","null","html-keyboard-response","183","377634","0.0-1.0-0.91","+","null","",""
"","2131","audio-keyboard-response","184","380729","0.0-1.0-1.91","../audio/teste-vocab--37.mp3","s","músico","mizisyen"
"","null","html-keyboard-response","185","381230","0.0-1.0-0.92","+","null","",""
"","1848","audio-keyboard-response","186","384194","0.0-1.0-1.92","../audio/teste-vocab--58.mp3","s","nutritivo","nourisan"
"","null","html-keyboard-response","187","384698","0.0-1.0-0.93","+","null","",""
"","3349","audio-keyboard-response","188","389078","0.0-1.0-1.93","../audio/teste-vocab--62.mp3","s","carretel","bobin"
"","null","html-keyboard-response","189","389580","0.0-1.0-0.94","+","null","",""
"","1512","audio-keyboard-response","190","391620","0.0-1.0-1.94","../audio/teste-vocab--73.mp3","s","ângulo","ang"
"","null","html-keyboard-response","191","392125","0.0-1.0-0.95","+","null","",""
"","1891","audio-keyboard-response","192","395038","0.0-1.0-1.95","../audio/teste-vocab--31.mp3","s","vazio","vid"
"","null","html-keyboard-response","193","395538","0.0-1.0-0.96","+","null","",""
"","1669","audio-keyboard-response","194","398213","0.0-1.0-1.96","../audio/teste-vocab--104.mp3","s","ira","pwal"
"","null","html-keyboard-response","195","398714","0.0-1.0-0.97","+","null","",""
"","1680","audio-keyboard-response","196","401395","0.0-1.0-1.97","../audio/teste-vocab--114.mp3","s","fragmentar","dechire"
"","null","html-keyboard-response","197","401896","0.0-1.0-0.98","+","null","",""
"","2549","audio-keyboard-response","198","405430","0.0-1.0-1.98","../audio/teste-vocab--118.mp3","s","paralelogramo","paralelogram"
"","null","html-keyboard-response","199","405932","0.0-1.0-0.99","+","null","",""
"","1789","audio-keyboard-response","200","408715","0.0-1.0-1.99","../audio/teste-vocab--72.mp3","s","ilha","zile"
"","null","html-keyboard-response","201","409217","0.0-1.0-0.100","+","null","",""
"","2461","audio-keyboard-response","202","412696","0.0-1.0-1.100","../audio/teste-vocab--65.mp3","s","discussão","diskisyon"
"","null","html-keyboard-response","203","413198","0.0-1.0-0.101","+","null","",""
"","1960","audio-keyboard-response","204","416134","0.0-1.0-1.101","../audio/teste-vocab--123.mp3","s","emissão","emisyon"
"","null","html-keyboard-response","205","416635","0.0-1.0-0.102","+","null","",""
"","1752","audio-keyboard-response","206","419461","0.0-1.0-1.102","../audio/teste-vocab--40.mp3","s","bebida","bwason"
"","null","html-keyboard-response","207","419963","0.0-1.0-0.103","+","null","",""
"","1691","audio-keyboard-response","208","422243","0.0-1.0-1.103","../audio/teste-vocab--13.mp3","s","ambulância","anbilans"
"","null","html-keyboard-response","209","422745","0.0-1.0-0.104","+","null","",""
"","6968","audio-keyboard-response","210","430711","0.0-1.0-1.104","../audio/teste-vocab--56.mp3","s","agricultura","agrikilti"
"","null","html-keyboard-response","211","431216","0.0-1.0-0.105","+","null","",""
"","1251","audio-keyboard-response","212","433492","0.0-1.0-1.105","../audio/teste-vocab--125.mp3","s","lamaçal","labou"
"","null","html-keyboard-response","213","433994","0.0-1.0-0.106","+","null","",""
"","1819","audio-keyboard-response","214","436845","0.0-1.0-1.106","../audio/teste-vocab--99.mp3","s","arqueólogo","akeyológ"
"","null","html-keyboard-response","215","437346","0.0-1.0-0.107","+","null","",""
"","208","audio-keyboard-response","216","438557","0.0-1.0-1.107","../audio/teste-vocab--46.mp3","s","ombro","zepòl"
"","null","html-keyboard-response","217","439058","0.0-1.0-0.108","+","null","",""
"","1760","audio-keyboard-response","218","441344","0.0-1.0-1.108","../audio/teste-vocab--12.mp3","s","jaula","kaj"
"","null","html-keyboard-response","219","441846","0.0-1.0-0.109","+","null","",""
"","1832","audio-keyboard-response","220","444783","0.0-1.0-1.109","../audio/teste-vocab--68.mp3","s","surpreendido","sezi"
"","null","html-keyboard-response","221","445285","0.0-1.0-0.110","+","null","",""
"","2800","audio-keyboard-response","222","449085","0.0-1.0-1.110","../audio/teste-vocab--105.mp3","s","cítrico","sitrik"
"","null","html-keyboard-response","223","449587","0.0-1.0-0.111","+","null","",""
"","1739","audio-keyboard-response","224","451884","0.0-1.0-1.111","../audio/teste-vocab--07.mp3","s","abajur","lanp"
"","null","html-keyboard-response","225","452385","0.0-1.0-0.112","+","null","",""
"","1611","audio-keyboard-response","226","455305","0.0-1.0-1.112","../audio/teste-vocab--77.mp3","s","comércio","komès"
"","null","html-keyboard-response","227","455808","0.0-1.0-0.113","+","null","",""
"","1021","audio-keyboard-response","228","457860","0.0-1.0-1.113","../audio/teste-vocab--44.mp3","s","premiar","rekonpanse"
"","null","html-keyboard-response","229","458361","0.0-1.0-0.114","+","null","",""
"","1888","audio-keyboard-response","230","461471","0.0-1.0-1.114","../audio/teste-vocab--91.mp3","s","bússola","bousòl"
"","null","html-keyboard-response","231","461978","0.0-1.0-0.115","+","null","",""
"","1720","audio-keyboard-response","232","464721","0.0-1.0-1.115","../audio/teste-vocab--24.mp3","s","acidente","aksidan"
"","null","html-keyboard-response","233","465222","0.0-1.0-0.116","+","null","",""
"","2240","audio-keyboard-response","234","468471","0.0-1.0-1.116","../audio/teste-vocab--80.mp3","s","binóculo","longvi"
"","null","html-keyboard-response","235","468972","0.0-1.0-0.117","+","null","",""
"","6600","audio-keyboard-response","236","476550","0.0-1.0-1.117","../audio/teste-vocab--55.mp3","s","bosque","forè"
"","null","html-keyboard-response","237","477051","0.0-1.0-0.118","+","null","",""
"","2240","audio-keyboard-response","238","480264","0.0-1.0-1.118","../audio/teste-vocab--81.mp3","s","judicial","jidisyè"
"","null","html-keyboard-response","239","480766","0.0-1.0-0.119","+","null","",""
"","9141","audio-keyboard-response","240","490904","0.0-1.0-1.119","../audio/teste-vocab--48.mp3","s","joia","bijou"
"","null","html-keyboard-response","241","491405","0.0-1.0-0.120","+","null","",""
"","4251","audio-keyboard-response","242","496643","0.0-1.0-1.120","../audio/teste-vocab--101.mp3","s","incandescente","enkandesan"
"","null","html-keyboard-response","243","497145","0.0-1.0-0.121","+","null","",""
"","2760","audio-keyboard-response","244","500904","0.0-1.0-1.121","../audio/teste-vocab--122.mp3","s","transeunte","pasajè"
"","null","html-keyboard-response","245","501406","0.0-1.0-0.122","+","null","",""
"","2171","audio-keyboard-response","246","504584","0.0-1.0-1.122","../audio/teste-vocab--119.mp3","s","numeroso","anpil"
"","null","html-keyboard-response","247","505086","0.0-1.0-0.123","+","null","",""
"","1760","audio-keyboard-response","248","507895","0.0-1.0-1.123","../audio/teste-vocab--96.mp3","s","árido","sechrès"
"","null","html-keyboard-response","249","508397","0.0-1.0-0.124","+","null","",""
"","2141","audio-keyboard-response","250","511542","0.0-1.0-1.124","../audio/teste-vocab--63.mp3","s","transparente","transparan"
"","null","html-keyboard-response","251","512044","0.0-1.0-0.125","+","null","",""
"","1739","audio-keyboard-response","252","514839","0.0-1.0-1.125","../audio/teste-vocab--107.mp3","s","elo","emay"
"","null","html-keyboard-response","253","515390","0.0-1.0-0.126","+","null","",""
"","1760","audio-keyboard-response","254","518134","0.0-1.0-1.126","../audio/teste-vocab--22.mp3","s","quebrado","kraze"
"","null","html-keyboard-response","255","518636","0.0-1.0-0.127","+","null","",""
"","1701","audio-keyboard-response","256","521452","0.0-1.0-1.127","../audio/teste-vocab--20.mp3","s","medir","mezire"
"","null","html-keyboard-response","257","521954","0.0-1.0-0.128","+","null","",""
"","1720","audio-keyboard-response","258","524179","0.0-1.0-1.128","../audio/teste-vocab--95.mp3","s","submergir","plonje"
"","null","html-keyboard-response","259","524680","0.0-1.0-0.129","+","null","",""
"","1328","audio-keyboard-response","260","526996","0.0-1.0-1.129","../audio/teste-vocab--64.mp3","s","colher","kiyè"
