"view_history","rt","trial_type","trial_index","time_elapsed","internal_node_id","stimulus","response","trial_part","word","question","answer","trial","accuracy"
"[{""page_index"":0,""viewing_time"":42217},{""page_index"":1,""viewing_time"":226735}]","268954","instructions","0","268960","0.0-0.0","","","","","","","",""
"","null","html-keyboard-response","1","270067","0.0-1.0-0.0-0.0","<span style= ""font-size:30px; font-family: monospace"">+</span>","null","fixation","","","","",""
"","8379","audio-keyboard-response","2","279853","0.0-1.0-1.0","../audio/prac-question-1-1.mp3"," ","","O","","","",""
"","3221","audio-keyboard-response","3","284124","0.0-1.0-1.1","../audio/prac-question-1-2.mp3"," ","","dia","","","",""
"","2640","audio-keyboard-response","4","287974","0.0-1.0-1.2","../audio/prac-question-1-3.mp3"," ","","estará","","","",""
"","4259","audio-keyboard-response","5","293260","0.0-1.0-1.3","../audio/prac-question-1-4.mp3"," ","","cheio","","","",""
"","3320","audio-keyboard-response","6","297600","0.0-1.0-1.4","../audio/prac-question-1-5.mp3"," ","","de","","","",""
"","4621","audio-keyboard-response","7","303439","0.0-1.0-1.5","../audio/prac-question-1-6.mp3"," ","","nuvens","","","",""
"","1261","audio-keyboard-response","8","305677","0.0-1.0-1.6","../audio/prac-question-1-7.mp3"," ","","hoje.","","","",""
"","null","html-keyboard-response","9","306930","0.0-1.0-0.7-0.7","<span style= ""font-size:30px; font-family: monospace"">+</span>","null","fixation","","","","",""
"","611","audio-keyboard-response","10","308519","0.0-1.0-1.7","../audio/prac-question-2-1.mp3"," ","","A","","","",""
"","469","audio-keyboard-response","11","309781","0.0-1.0-1.8","../audio/prac-question-2-2.mp3"," ","","caneca","","","",""
"","1232","audio-keyboard-response","12","311767","0.0-1.0-1.9","../audio/prac-question-2-3.mp3"," ","","colorida","","","",""
"","789","audio-keyboard-response","13","313076","0.0-1.0-1.10","../audio/prac-question-2-4.mp3"," ","","caiu","","","",""
"","549","audio-keyboard-response","14","314139","0.0-1.0-1.11","../audio/prac-question-2-5.mp3"," ","","da","","","",""
"","728","audio-keyboard-response","15","315375","0.0-1.0-1.12","../audio/prac-question-2-6.mp3"," ","","mesa","","","",""
"","539","audio-keyboard-response","16","316431","0.0-1.0-1.13","../audio/prac-question-2-7.mp3"," ","","de","","","",""
"","1688","audio-keyboard-response","17","318901","0.0-1.0-1.14","../audio/prac-question-2-8.mp3"," ","","jantar.","","","",""
"","16449","html-keyboard-response","18","335602","0.0-1.0-2.14-0.14","<span style=""font-size:25px; font-family: monospace"">A caneca era colorida?</span>","n","","","A caneca era colorida?","null","prac-sent","false"
"[{""page_index"":0,""viewing_time"":19239}]","19240","instructions","19","355343","0.0-2.0","","","","","","","",""
"","null","html-keyboard-response","20","356446","0.0-3.0-0.0-0.0","<span style= ""font-size:30px; font-family: monospace"">+</span>","null","fixation","","","","",""
"","2109","audio-keyboard-response","21","359586","0.0-3.0-1.0","../audio/28-1-masc.mp3"," ","","O","","","",""
"","888","audio-keyboard-response","22","361455","0.0-3.0-1.1","../audio/28-2-masc.mp3"," ","","time","","","",""
"","648","audio-keyboard-response","23","362653","0.0-3.0-1.2","../audio/28-3-masc.mp3"," ","","quer","","","",""
"","808","audio-keyboard-response","24","363982","0.0-3.0-1.3","../audio/28-4-masc.mp3"," ","","a","","","",""
"","1211","audio-keyboard-response","25","365959","0.0-3.0-1.4","../audio/28-5-masc.mp3"," ","","vitória","","","",""
"","859","audio-keyboard-response","26","367337","0.0-3.0-1.5","../audio/28-6-masc.mp3"," ","","no","","","",""
"","779","audio-keyboard-response","27","368624","0.0-3.0-1.6","../audio/28-7-masc.mp3"," ","","jogo","","","",""
"","691","audio-keyboard-response","28","369826","0.0-3.0-1.7","../audio/28-8-masc.mp3"," ","","de","","","",""
"","1101","audio-keyboard-response","29","371918","0.0-3.0-1.8","../audio/28-9-masc.mp3"," ","","vôlei.","","","",""
"","null","html-keyboard-response","30","373169","0.0-3.0-0.9-0.9","<span style= ""font-size:30px; font-family: monospace"">+</span>","null","fixation","","","","",""
"","1080","audio-keyboard-response","31","375235","0.0-3.0-1.9","../audio/29-1-masc.mp3"," ","","Hoje","","","",""
"","771","audio-keyboard-response","32","376790","0.0-3.0-1.10","../audio/29-2-masc.mp3"," ","","vamos","","","",""
"","811","audio-keyboard-response","33","378158","0.0-3.0-1.11","../audio/29-3-masc.mp3"," ","","fazer","","","",""
"","899","audio-keyboard-response","34","379578","0.0-3.0-1.12","../audio/29-4-masc.mp3"," ","","uma","","","",""
"","1459","audio-keyboard-response","35","382266","0.0-3.0-1.13","../audio/29-5-masc.mp3"," ","","atividade","","","",""
"","989","audio-keyboard-response","36","384298","0.0-3.0-1.14","../audio/29-6-masc.mp3"," ","","sobre","","","",""
"","1368","audio-keyboard-response","37","386220","0.0-3.0-1.15","../audio/29-7-masc.mp3"," ","","fauna","","","",""
"","2240","audio-keyboard-response","38","389220","0.0-3.0-1.16","../audio/29-8-masc.mp3"," ","","marinha.","","","",""
"","null","html-keyboard-response","39","390475","0.0-3.0-0.17-0.17","<span style= ""font-size:30px; font-family: monospace"">+</span>","null","fixation","","","","",""
"","949","audio-keyboard-response","40","392461","0.0-3.0-1.17","../audio/27-1-masc.mp3"," ","","O","","","",""
"","1131","audio-keyboard-response","41","394343","0.0-3.0-1.18","../audio/27-2-masc.mp3"," ","","dinheiro","","","",""
"","781","audio-keyboard-response","42","395640","0.0-3.0-1.19","../audio/27-3-masc.mp3"," ","","chegou","","","",""
"","659","audio-keyboard-response","43","396816","0.0-3.0-1.20","../audio/27-4-masc.mp3"," ","","à","","","",""
"","1008","audio-keyboard-response","44","398336","0.0-3.0-1.21","../audio/27-5-masc.mp3"," ","","elite","","","",""
"","888","audio-keyboard-response","45","399741","0.0-3.0-1.22","../audio/27-6-masc.mp3"," ","","deste","","","",""
"","1232","audio-keyboard-response","46","401970","0.0-3.0-1.23","../audio/27-7-masc.mp3"," ","","país.","","","",""
"","null","html-keyboard-response","47","403221","0.0-3.0-0.24-0.24","<span style= ""font-size:30px; font-family: monospace"">+</span>","null","fixation","","","","",""
"","1099","audio-keyboard-response","48","405586","0.0-3.0-1.24","../audio/26-1-fem.mp3"," ","","Amanhã","","","",""
"","859","audio-keyboard-response","49","406987","0.0-3.0-1.25","../audio/26-2-fem.mp3"," ","","temos","","","",""
"","560","audio-keyboard-response","50","408337","0.0-3.0-1.26","../audio/26-3-fem.mp3"," ","","festa","","","",""
"","640","audio-keyboard-response","51","409485","0.0-3.0-1.27","../audio/26-4-fem.mp3"," ","","na","","","",""
"","1179","audio-keyboard-response","52","411737","0.0-3.0-1.28","../audio/26-5-fem.mp3"," ","","piscina","","","",""
"","648","audio-keyboard-response","53","412898","0.0-3.0-1.29","../audio/26-6-fem.mp3"," ","","o","","","",""
"","811","audio-keyboard-response","54","414230","0.0-3.0-1.30","../audio/26-7-fem.mp3"," ","","dia","","","",""
"","819","audio-keyboard-response","55","415587","0.0-3.0-1.31","../audio/26-8-fem.mp3"," ","","todo.","","","",""
"","null","html-keyboard-response","56","416839","0.0-3.0-0.32-0.32","<span style= ""font-size:30px; font-family: monospace"">+</span>","null","fixation","","","","",""
"","1312","audio-keyboard-response","57","419166","0.0-3.0-1.32","../audio/30-1-masc.mp3"," ","","O","","","",""
"","1011","audio-keyboard-response","58","421408","0.0-3.0-1.33","../audio/30-2-masc.mp3"," ","","funcionário","","","",""
"","800","audio-keyboard-response","59","422718","0.0-3.0-1.34","../audio/30-3-masc.mp3"," ","","entregou","","","",""
"","632","audio-keyboard-response","60","423890","0.0-3.0-1.35","../audio/30-4-masc.mp3"," ","","o","","","",""
"","2160","audio-keyboard-response","61","426868","0.0-3.0-1.36","../audio/30-5-masc.mp3"," ","","restante","","","",""
"","811","audio-keyboard-response","62","428680","0.0-3.0-1.37","../audio/30-6-masc.mp3"," ","","do","","","",""
"","741","audio-keyboard-response","63","429967","0.0-3.0-1.38","../audio/30-7-masc.mp3"," ","","dinheiro.","","","",""
"","5322","html-keyboard-response","64","435544","0.0-3.0-2.38-0.38","<span style=""font-size:25px; font-family: monospace"">O funcionário entregou o contrato?</span>","n","","","O funcionário entregou o contrato?","null","exp-sent","false"
"","null","html-keyboard-response","65","437046","0.0-3.0-0.39-0.39","<span style= ""font-size:30px; font-family: monospace"">+</span>","null","fixation","","","","",""
"","2101","audio-keyboard-response","66","440168","0.0-3.0-1.39","../audio/71-1-fem.mp3"," ","","Minhas","","","",""
"","739","audio-keyboard-response","67","442151","0.0-3.0-1.40","../audio/71-2-fem.mp3"," ","","comidas","","","",""
"","1211","audio-keyboard-response","68","444149","0.0-3.0-1.41","../audio/71-3-fem.mp3"," ","","favoritas","","","",""
"","709","audio-keyboard-response","69","445372","0.0-3.0-1.42","../audio/71-4-fem.mp3"," ","","são","","","",""
"","1131","audio-keyboard-response","70","447251","0.0-3.0-1.43","../audio/71-5-fem.mp3"," ","","morango","","","",""
"","651","audio-keyboard-response","71","448409","0.0-3.0-1.44","../audio/71-6-fem.mp3"," ","","e","","","",""
"","909","audio-keyboard-response","72","449839","0.0-3.0-1.45","../audio/71-7-fem.mp3"," ","","uva.","","","",""
"","null","html-keyboard-response","73","451091","0.0-3.0-0.46-0.46","<span style= ""font-size:30px; font-family: monospace"">+</span>","null","fixation","","","","",""
"","1299","audio-keyboard-response","74","453392","0.0-3.0-1.46","../audio/74-1-fem.mp3"," ","","Este","","","",""
"","1339","audio-keyboard-response","75","455509","0.0-3.0-1.47","../audio/74-2-fem.mp3"," ","","emprego","","","",""
"","680","audio-keyboard-response","76","457312","0.0-3.0-1.48","../audio/74-3-fem.mp3"," ","","é","","","",""
"","1000","audio-keyboard-response","77","458817","0.0-3.0-1.49","../audio/74-4-fem.mp3"," ","","muito","","","",""
"","1621","audio-keyboard-response","78","461193","0.0-3.0-1.50","../audio/74-5-fem.mp3"," ","","cansativo","","","",""
"","600","audio-keyboard-response","79","462781","0.0-3.0-1.51","../audio/74-6-fem.mp3"," ","","a","","","",""
"","1088","audio-keyboard-response","80","464380","0.0-3.0-1.52","../audio/74-7-fem.mp3"," ","","longo","","","",""
"","989","audio-keyboard-response","81","465878","0.0-3.0-1.53","../audio/74-8-fem.mp3"," ","","prazo.","","","",""
"","null","html-keyboard-response","82","467130","0.0-3.0-0.54-0.54","<span style= ""font-size:30px; font-family: monospace"">+</span>","null","fixation","","","","",""
"","931","audio-keyboard-response","83","469046","0.0-3.0-1.54","../audio/72-1-fem.mp3"," ","","A","","","",""
"","1680","audio-keyboard-response","84","471966","0.0-3.0-1.55","../audio/72-2-fem.mp3"," ","","vencedora","","","",""
"","1259","audio-keyboard-response","85","473749","0.0-3.0-1.56","../audio/72-3-fem.mp3"," ","","recebeu","","","",""
"","680","audio-keyboard-response","86","474941","0.0-3.0-1.57","../audio/72-4-fem.mp3"," ","","um","","","",""
"","1040","audio-keyboard-response","87","476510","0.0-3.0-1.58","../audio/72-5-fem.mp3"," ","","prêmio","","","",""
"","709","audio-keyboard-response","88","477773","0.0-3.0-1.59","../audio/72-6-fem.mp3"," ","","em","","","",""
"","949","audio-keyboard-response","89","479482","0.0-3.0-1.60","../audio/72-7-fem.mp3"," ","","dinheiro.","","","",""
"","null","html-keyboard-response","90","480734","0.0-3.0-0.61-0.61","<span style= ""font-size:30px; font-family: monospace"">+</span>","null","fixation","","","","",""
"","680","audio-keyboard-response","91","482434","0.0-3.0-1.61","../audio/73-1-masc.mp3"," ","","O","","","",""
"","891","audio-keyboard-response","92","484081","0.0-3.0-1.62","../audio/73-2-masc.mp3"," ","","cliente","","","",""
"","509","audio-keyboard-response","93","485097","0.0-3.0-1.63","../audio/73-3-masc.mp3"," ","","era","","","",""
"","648","audio-keyboard-response","94","486258","0.0-3.0-1.64","../audio/73-4-masc.mp3"," ","","um","","","",""
"","821","audio-keyboard-response","95","487608","0.0-3.0-1.65","../audio/73-5-masc.mp3"," ","","homem","","","",""
"","1168","audio-keyboard-response","96","489532","0.0-3.0-1.66","../audio/73-6-masc.mp3"," ","","muito","","","",""
"","1229","audio-keyboard-response","97","491992","0.0-3.0-1.67","../audio/73-7-masc.mp3"," ","","educado.","","","",""
"","null","html-keyboard-response","98","493244","0.0-3.0-0.68-0.68","<span style= ""font-size:30px; font-family: monospace"">+</span>","null","fixation","","","","",""
"","59","audio-keyboard-response","99","494308","0.0-3.0-1.68","../audio/75-1-fem.mp3"," ","","Só","","","",""
"","1181","audio-keyboard-response","100","496010","0.0-3.0-1.69","../audio/75-2-fem.mp3"," ","","existe","","","",""
"","789","audio-keyboard-response","101","497314","0.0-3.0-1.70","../audio/75-3-fem.mp3"," ","","uma","","","",""
"","981","audio-keyboard-response","102","499052","0.0-3.0-1.71","../audio/75-4-fem.mp3"," ","","pessoa","","","",""
"","720","audio-keyboard-response","103","501051","0.0-3.0-1.72","../audio/75-5-fem.mp3"," ","","canhota","","","",""
"","891","audio-keyboard-response","104","502704","0.0-3.0-1.73","../audio/75-6-fem.mp3"," ","","nesta","","","",""
"","1229","audio-keyboard-response","105","504706","0.0-3.0-1.74","../audio/75-7-fem.mp3"," ","","cidade.","","","",""
"","5500","html-keyboard-response","106","510459","0.0-3.0-2.74-0.74","<span style=""font-size:25px; font-family: monospace"">Só existe uma pessoa canhota na cidade?</span>","s","","","Só existe uma pessoa canhota na cidade?","null","exp-sent","false"
"","null","html-keyboard-response","107","511960","0.0-3.0-0.75-0.75","<span style= ""font-size:30px; font-family: monospace"">+</span>","null","fixation","","","","",""
"","1171","audio-keyboard-response","108","514352","0.0-3.0-1.75","../audio/61-1-masc.mp3"," ","","Aquele","","","",""
"","960","audio-keyboard-response","109","515819","0.0-3.0-1.76","../audio/61-2-masc.mp3"," ","","senhor","","","",""
"","608","audio-keyboard-response","110","516935","0.0-3.0-1.77","../audio/61-3-masc.mp3"," ","","é","","","",""
"","1211","audio-keyboard-response","111","518671","0.0-3.0-1.78","../audio/61-4-masc.mp3"," ","","muito","","","",""
"","1411","audio-keyboard-response","112","520832","0.0-3.0-1.79","../audio/61-5-masc.mp3"," ","","sovina","","","",""
"","669","audio-keyboard-response","113","522560","0.0-3.0-1.80","../audio/61-6-masc.mp3"," ","","e","","","",""
"","1760","audio-keyboard-response","114","525069","0.0-3.0-1.81","../audio/61-7-masc.mp3"," ","","inflexível.","","","",""
"","null","html-keyboard-response","115","526321","0.0-3.0-0.82-0.82","<span style= ""font-size:30px; font-family: monospace"">+</span>","null","fixation","","","","",""
"","40","audio-keyboard-response","116","527348","0.0-3.0-1.82","../audio/62-1-fem.mp3"," ","","As","","","",""
"","1829","audio-keyboard-response","117","529700","0.0-3.0-1.83","../audio/62-2-fem.mp3"," ","","artesãs","","","",""
"","920","audio-keyboard-response","118","531860","0.0-3.0-1.84","../audio/62-3-fem.mp3"," ","","gostam","","","",""
"","669","audio-keyboard-response","119","533033","0.0-3.0-1.85","../audio/62-4-fem.mp3"," ","","de","","","",""
"","1360","audio-keyboard-response","120","535195","0.0-3.0-1.86","../audio/62-5-fem.mp3"," ","","maquiagem","","","",""
"","619","audio-keyboard-response","121","536979","0.0-3.0-1.87","../audio/62-6-fem.mp3"," ","","e","","","",""
"","688","audio-keyboard-response","122","538175","0.0-3.0-1.88","../audio/62-7-fem.mp3"," ","","de","","","",""
"","2181","audio-keyboard-response","123","540875","0.0-3.0-1.89","../audio/62-8-fem.mp3"," ","","crochê.","","","",""
"","null","html-keyboard-response","124","542127","0.0-3.0-0.90-0.90","<span style= ""font-size:30px; font-family: monospace"">+</span>","null","fixation","","","","",""
"","1669","audio-keyboard-response","125","544780","0.0-3.0-1.90","../audio/64-1-masc.mp3"," ","","O","","","",""
"","840","audio-keyboard-response","126","546665","0.0-3.0-1.91","../audio/64-2-masc.mp3"," ","","dia","","","",""
"","949","audio-keyboard-response","127","548162","0.0-3.0-1.92","../audio/64-3-masc.mp3"," ","","começou","","","",""
"","699","audio-keyboard-response","128","549380","0.0-3.0-1.93","../audio/64-4-masc.mp3"," ","","com","","","",""
"","1341","audio-keyboard-response","129","551956","0.0-3.0-1.94","../audio/64-5-masc.mp3"," ","","garoa","","","",""
"","869","audio-keyboard-response","130","554257","0.0-3.0-1.95","../audio/64-6-masc.mp3"," ","","gelada","","","",""
"","621","audio-keyboard-response","131","555398","0.0-3.0-1.96","../audio/64-7-masc.mp3"," ","","e","","","",""
"","960","audio-keyboard-response","132","556898","0.0-3.0-1.97","../audio/64-8-masc.mp3"," ","","leve.","","","",""
"","null","html-keyboard-response","133","558151","0.0-3.0-0.98-0.98","<span style= ""font-size:30px; font-family: monospace"">+</span>","null","fixation","","","","",""
"","811","audio-keyboard-response","134","559476","0.0-3.0-1.98","../audio/63-1-masc.mp3"," ","","A","","","",""
"","920","audio-keyboard-response","135","561389","0.0-3.0-1.99","../audio/63-2-masc.mp3"," ","","chuva","","","",""
"","781","audio-keyboard-response","136","562682","0.0-3.0-1.100","../audio/63-3-masc.mp3"," ","","entrou","","","",""
"","920","audio-keyboard-response","137","564133","0.0-3.0-1.101","../audio/63-4-masc.mp3"," ","","pela","","","",""
"","1080","audio-keyboard-response","138","565976","0.0-3.0-1.102","../audio/63-5-masc.mp3"," ","","abertura","","","",""
"","741","audio-keyboard-response","139","567234","0.0-3.0-1.103","../audio/63-6-masc.mp3"," ","","na","","","",""
"","1109","audio-keyboard-response","140","568879","0.0-3.0-1.104","../audio/63-7-masc.mp3"," ","","janela.","","","",""
"","null","html-keyboard-response","141","570130","0.0-3.0-0.105-0.105","<span style= ""font-size:30px; font-family: monospace"">+</span>","null","fixation","","","","",""
"","691","audio-keyboard-response","142","571823","0.0-3.0-1.105","../audio/65-1-fem.mp3"," ","","O","","","",""
"","1181","audio-keyboard-response","143","573753","0.0-3.0-1.106","../audio/65-2-fem.mp3"," ","","fantasma","","","",""
"","960","audio-keyboard-response","144","575231","0.0-3.0-1.107","../audio/65-3-fem.mp3"," ","","veio","","","",""
"","611","audio-keyboard-response","145","576359","0.0-3.0-1.108","../audio/65-4-fem.mp3"," ","","da","","","",""
"","1379","audio-keyboard-response","146","578495","0.0-3.0-1.109","../audio/65-5-fem.mp3"," ","","escuridão","","","",""
"","771","audio-keyboard-response","147","580666","0.0-3.0-1.110","../audio/65-6-fem.mp3"," ","","do","","","",""
"","1320","audio-keyboard-response","148","582745","0.0-3.0-1.111","../audio/65-7-fem.mp3"," ","","armário.","","","",""
"","4023","html-keyboard-response","149","587019","0.0-3.0-2.111-0.111","<span style=""font-size:25px; font-family: monospace"">O fantasma veio da escuridão do armário?</span>","s","","","O fantasma veio da escuridão do armário?","null","exp-sent","false"
"","null","html-keyboard-response","150","588520","0.0-3.0-0.112-0.112","<span style= ""font-size:30px; font-family: monospace"">+</span>","null","fixation","","","","",""
"","968","audio-keyboard-response","151","590540","0.0-3.0-1.112","../audio/49-1-fem.mp3"," ","","Eu","","","",""
"","931","audio-keyboard-response","152","591992","0.0-3.0-1.113","../audio/49-2-fem.mp3"," ","","quero","","","",""
"","811","audio-keyboard-response","153","593326","0.0-3.0-1.114","../audio/49-3-fem.mp3"," ","","um","","","",""
"","1288","audio-keyboard-response","154","595140","0.0-3.0-1.115","../audio/49-4-fem.mp3"," ","","lanche","","","",""
"","669","audio-keyboard-response","155","596333","0.0-3.0-1.116","../audio/49-5-fem.mp3"," ","","duplo","","","",""
"","939","audio-keyboard-response","156","597789","0.0-3.0-1.117","../audio/49-6-fem.mp3"," ","","e","","","",""
"","781","audio-keyboard-response","157","599079","0.0-3.0-1.118","../audio/49-7-fem.mp3"," ","","um","","","",""
"","1051","audio-keyboard-response","158","601202","0.0-3.0-1.119","../audio/49-8-fem.mp3"," ","","suco.","","","",""
"","null","html-keyboard-response","159","602454","0.0-3.0-0.120-0.120","<span style= ""font-size:30px; font-family: monospace"">+</span>","null","fixation","","","","",""
"","891","audio-keyboard-response","160","603849","0.0-3.0-1.120","../audio/48-1-fem.mp3"," ","","Ela","","","",""
"","829","audio-keyboard-response","161","605196","0.0-3.0-1.121","../audio/48-2-fem.mp3"," ","","come","","","",""
"","1280","audio-keyboard-response","162","607234","0.0-3.0-1.122","../audio/48-3-fem.mp3"," ","","feijão","","","",""
"","528","audio-keyboard-response","163","608979","0.0-3.0-1.123","../audio/48-4-fem.mp3"," ","","com","","","",""
"","792","audio-keyboard-response","164","610526","0.0-3.0-1.124","../audio/48-5-fem.mp3"," ","","arroz","","","",""
"","611","audio-keyboard-response","165","611648","0.0-3.0-1.125","../audio/48-6-fem.mp3"," ","","todos","","","",""
"","720","audio-keyboard-response","166","612874","0.0-3.0-1.126","../audio/48-7-fem.mp3"," ","","os","","","",""
"","861","audio-keyboard-response","167","614272","0.0-3.0-1.127","../audio/48-8-fem.mp3"," ","","dias.","","","",""
"","null","html-keyboard-response","168","615524","0.0-3.0-0.128-0.128","<span style= ""font-size:30px; font-family: monospace"">+</span>","null","fixation","","","","",""
"","240","audio-keyboard-response","169","616771","0.0-3.0-1.128","../audio/46-1-fem.mp3"," ","","Meu","","","",""
"","912","audio-keyboard-response","170","618211","0.0-3.0-1.129","../audio/46-2-fem.mp3"," ","","primo","","","",""
"","829","audio-keyboard-response","171","619797","0.0-3.0-1.130","../audio/46-3-fem.mp3"," ","","estava","","","",""
"","712","audio-keyboard-response","172","621490","0.0-3.0-1.131","../audio/46-4-fem.mp3"," ","","muito","","","",""
"","1429","audio-keyboard-response","173","623678","0.0-3.0-1.132","../audio/46-5-fem.mp3"," ","","deprimido","","","",""
"","699","audio-keyboard-response","174","625432","0.0-3.0-1.133","../audio/46-6-fem.mp3"," ","","no","","","",""
"","1160","audio-keyboard-response","175","627334","0.0-3.0-1.134","../audio/46-7-fem.mp3"," ","","inverno.","","","",""
"","null","html-keyboard-response","176","628586","0.0-3.0-0.135-0.135","<span style= ""font-size:30px; font-family: monospace"">+</span>","null","fixation","","","","",""
"","771","audio-keyboard-response","177","630371","0.0-3.0-1.135","../audio/47-1-masc.mp3"," ","","O","","","",""
"","819","audio-keyboard-response","178","631711","0.0-3.0-1.136","../audio/47-2-masc.mp3"," ","","tio","","","",""
"","1120","audio-keyboard-response","179","633586","0.0-3.0-1.137","../audio/47-3-masc.mp3"," ","","recusou","","","",""
"","600","audio-keyboard-response","180","634686","0.0-3.0-1.138","../audio/47-4-masc.mp3"," ","","a","","","",""
"","1168","audio-keyboard-response","181","636618","0.0-3.0-1.139","../audio/47-5-masc.mp3"," ","","sobremesa","","","",""
"","731","audio-keyboard-response","182","637845","0.0-3.0-1.140","../audio/47-6-masc.mp3"," ","","no","","","",""
"","1280","audio-keyboard-response","183","639639","0.0-3.0-1.141","../audio/47-7-masc.mp3"," ","","almoço.","","","",""
"","null","html-keyboard-response","184","640890","0.0-3.0-0.142-0.142","<span style= ""font-size:30px; font-family: monospace"">+</span>","null","fixation","","","","",""
"","1581","audio-keyboard-response","185","643451","0.0-3.0-1.142","../audio/50-1-fem.mp3"," ","","O","","","",""
"","1600","audio-keyboard-response","186","646460","0.0-3.0-1.143","../audio/50-2-fem.mp3"," ","","pássaro","","","",""
"","1011","audio-keyboard-response","187","648472","0.0-3.0-1.144","../audio/50-3-fem.mp3"," ","","fugiu","","","",""
"","592","audio-keyboard-response","188","649572","0.0-3.0-1.145","../audio/50-4-fem.mp3"," ","","da","","","",""
"","1211","audio-keyboard-response","189","652065","0.0-3.0-1.146","../audio/50-5-fem.mp3"," ","","gaiola","","","",""
"","771","audio-keyboard-response","190","653365","0.0-3.0-1.147","../audio/50-6-fem.mp3"," ","","pela","","","",""
"","1552","audio-keyboard-response","191","655689","0.0-3.0-1.148","../audio/50-7-fem.mp3"," ","","portinhola.","","","",""
"","5876","html-keyboard-response","192","661816","0.0-3.0-2.148-0.148","<span style=""font-size:25px; font-family: monospace"">O pássaro fugiu da gaiola?</span>","s","","","O pássaro fugiu da gaiola?","null","exp-sent","false"
"","null","html-keyboard-response","193","663319","0.0-3.0-0.149-0.149","<span style= ""font-size:30px; font-family: monospace"">+</span>","null","fixation","","","","",""
"","5400","audio-keyboard-response","194","669762","0.0-3.0-1.149","../audio/54-1-fem.mp3"," ","","Estou","","","",""
"","691","audio-keyboard-response","195","671463","0.0-3.0-1.150","../audio/54-2-fem.mp3"," ","","com","","","",""
"","680","audio-keyboard-response","196","672661","0.0-3.0-1.151","../audio/54-3-fem.mp3"," ","","medo","","","",""
"","960","audio-keyboard-response","197","674138","0.0-3.0-1.152","../audio/54-4-fem.mp3"," ","","da","","","",""
"","981","audio-keyboard-response","198","675891","0.0-3.0-1.153","../audio/54-5-fem.mp3"," ","","atual","","","",""
"","3589","audio-keyboard-response","199","680256","0.0-3.0-1.154","../audio/54-6-fem.mp3"," ","","organização","","","",""
"","579","audio-keyboard-response","200","681830","0.0-3.0-1.155","../audio/54-7-fem.mp3"," ","","do","","","",""
"","1059","audio-keyboard-response","201","683415","0.0-3.0-1.156","../audio/54-8-fem.mp3"," ","","país.","","","",""
"","null","html-keyboard-response","202","684668","0.0-3.0-0.157-0.157","<span style= ""font-size:30px; font-family: monospace"">+</span>","null","fixation","","","","",""
"","800","audio-keyboard-response","203","686432","0.0-3.0-1.157","../audio/53-1-fem.mp3"," ","","O","","","",""
"","832","audio-keyboard-response","204","687766","0.0-3.0-1.158","../audio/53-2-fem.mp3"," ","","médico","","","",""
"","549","audio-keyboard-response","205","688833","0.0-3.0-1.159","../audio/53-3-fem.mp3"," ","","foi","","","",""
"","701","audio-keyboard-response","206","690273","0.0-3.0-1.160","../audio/53-4-fem.mp3"," ","","bastante","","","",""
"","1192","audio-keyboard-response","207","692208","0.0-3.0-1.161","../audio/53-5-fem.mp3"," ","","preciso","","","",""
"","1139","audio-keyboard-response","208","693858","0.0-3.0-1.162","../audio/53-6-fem.mp3"," ","","durante","","","",""
"","760","audio-keyboard-response","209","695116","0.0-3.0-1.163","../audio/53-7-fem.mp3"," ","","a","","","",""
"","2389","audio-keyboard-response","210","698257","0.0-3.0-1.164","../audio/53-8-fem.mp3"," ","","cirurgia.","","","",""
"","null","html-keyboard-response","211","699510","0.0-3.0-0.165-0.165","<span style= ""font-size:30px; font-family: monospace"">+</span>","null","fixation","","","","",""
"","989","audio-keyboard-response","212","701499","0.0-3.0-1.165","../audio/52-1-masc.mp3"," ","","Às","","","",""
"","880","audio-keyboard-response","213","702900","0.0-3.0-1.166","../audio/52-2-masc.mp3"," ","","vezes","","","",""
"","701","audio-keyboard-response","214","704114","0.0-3.0-1.167","../audio/52-3-masc.mp3"," ","","eu","","","",""
"","811","audio-keyboard-response","215","705427","0.0-3.0-1.168","../audio/52-4-masc.mp3"," ","","tenho","","","",""
"","1989","audio-keyboard-response","216","707945","0.0-3.0-1.169","../audio/52-5-masc.mp3"," ","","azia","","","",""
"","1112","audio-keyboard-response","217","710086","0.0-3.0-1.170","../audio/52-6-masc.mp3"," ","","depois","","","",""
"","739","audio-keyboard-response","218","711832","0.0-3.0-1.171","../audio/52-7-masc.mp3"," ","","da","","","",""
"","1291","audio-keyboard-response","219","713641","0.0-3.0-1.172","../audio/52-8-masc.mp3"," ","","janta.","","","",""
"","null","html-keyboard-response","220","714892","0.0-3.0-0.173-0.173","<span style= ""font-size:30px; font-family: monospace"">+</span>","null","fixation","","","","",""
"","1019","audio-keyboard-response","221","716904","0.0-3.0-1.173","../audio/51-1-masc.mp3"," ","","Suco","","","",""
"","720","audio-keyboard-response","222","718201","0.0-3.0-1.174","../audio/51-2-masc.mp3"," ","","de","","","",""
"","1621","audio-keyboard-response","223","720572","0.0-3.0-1.175","../audio/51-3-masc.mp3"," ","","acerola","","","",""
"","709","audio-keyboard-response","224","722267","0.0-3.0-1.176","../audio/51-4-masc.mp3"," ","","é","","","",""
"","909","audio-keyboard-response","225","723698","0.0-3.0-1.177","../audio/51-5-masc.mp3"," ","","azedo","","","",""
"","611","audio-keyboard-response","226","724871","0.0-3.0-1.178","../audio/51-6-masc.mp3"," ","","e","","","",""
"","931","audio-keyboard-response","227","726307","0.0-3.0-1.179","../audio/51-7-masc.mp3"," ","","até","","","",""
"","1021","audio-keyboard-response","228","727845","0.0-3.0-1.180","../audio/51-8-masc.mp3"," ","","barato.","","","",""
"","null","html-keyboard-response","229","729097","0.0-3.0-0.181-0.181","<span style= ""font-size:30px; font-family: monospace"">+</span>","null","fixation","","","","",""
"","1709","audio-keyboard-response","230","731791","0.0-3.0-1.181","../audio/55-1-masc.mp3"," ","","O","","","",""
"","1429","audio-keyboard-response","231","734263","0.0-3.0-1.182","../audio/55-2-masc.mp3"," ","","insulto","","","",""
"","1520","audio-keyboard-response","232","736601","0.0-3.0-1.183","../audio/55-3-masc.mp3"," ","","recente","","","",""
"","1008","audio-keyboard-response","233","738619","0.0-3.0-1.184","../audio/55-4-masc.mp3"," ","","causou","","","",""
"","1992","audio-keyboard-response","234","741372","0.0-3.0-1.185","../audio/55-5-masc.mp3"," ","","indignação","","","",""
"","728","audio-keyboard-response","235","743100","0.0-3.0-1.186","../audio/55-6-masc.mp3"," ","","em","","","",""
"","1149","audio-keyboard-response","236","744779","0.0-3.0-1.187","../audio/55-7-masc.mp3"," ","","todos.","","","",""
"","7437","html-keyboard-response","237","752467","0.0-3.0-2.187-0.187","<span style=""font-size:25px; font-family: monospace"">O insulto causou calmaria?</span>","n","","","O insulto causou calmaria?","null","exp-sent","false"
"","null","html-keyboard-response","238","753969","0.0-3.0-0.188-0.188","<span style= ""font-size:30px; font-family: monospace"">+</span>","null","fixation","","","","",""
"","1011","audio-keyboard-response","239","756007","0.0-3.0-1.188","../audio/09-1-masc.mp3"," ","","O","","","",""
"","1379","audio-keyboard-response","240","758146","0.0-3.0-1.189","../audio/09-2-masc.mp3"," ","","rapaz","","","",""
"","1051","audio-keyboard-response","241","760321","0.0-3.0-1.190","../audio/09-3-masc.mp3"," ","","limpou","","","",""
"","680","audio-keyboard-response","242","761988","0.0-3.0-1.191","../audio/09-4-masc.mp3"," ","","o","","","",""
"","1040","audio-keyboard-response","243","763784","0.0-3.0-1.192","../audio/09-5-masc.mp3"," ","","terreno","","","",""
"","720","audio-keyboard-response","244","765018","0.0-3.0-1.193","../audio/09-6-masc.mp3"," ","","com","","","",""
"","832","audio-keyboard-response","245","766368","0.0-3.0-1.194","../audio/09-7-masc.mp3"," ","","uma","","","",""
"","1048","audio-keyboard-response","246","767942","0.0-3.0-1.195","../audio/09-8-masc.mp3"," ","","pá.","","","",""
"","null","html-keyboard-response","247","769194","0.0-3.0-0.196-0.196","<span style= ""font-size:30px; font-family: monospace"">+</span>","null","fixation","","","","",""
"","1160","audio-keyboard-response","248","771327","0.0-3.0-1.196","../audio/08-1-fem.mp3"," ","","A","","","",""
"","1360","audio-keyboard-response","249","773480","0.0-3.0-1.197","../audio/08-2-fem.mp3"," ","","receita","","","",""
"","669","audio-keyboard-response","250","775223","0.0-3.0-1.198","../audio/08-3-fem.mp3"," ","","pede","","","",""
"","701","audio-keyboard-response","251","776452","0.0-3.0-1.199","../audio/08-4-fem.mp3"," ","","um","","","",""
"","840","audio-keyboard-response","252","777814","0.0-3.0-1.200","../audio/08-5-fem.mp3"," ","","litro","","","",""
"","731","audio-keyboard-response","253","779066","0.0-3.0-1.201","../audio/08-6-fem.mp3"," ","","de","","","",""
"","1072","audio-keyboard-response","254","781326","0.0-3.0-1.202","../audio/08-7-fem.mp3"," ","","leite","","","",""
"","1248","audio-keyboard-response","255","783334","0.0-3.0-1.203","../audio/08-8-fem.mp3"," ","","integral.","","","",""
"","null","html-keyboard-response","256","784586","0.0-3.0-0.204-0.204","<span style= ""font-size:30px; font-family: monospace"">+</span>","null","fixation","","","","",""
"","1251","audio-keyboard-response","257","787086","0.0-3.0-1.204","../audio/06-1-masc.mp3"," ","","Ouvimos","","","",""
"","611","audio-keyboard-response","258","788947","0.0-3.0-1.205","../audio/06-2-masc.mp3"," ","","a","","","",""
"","971","audio-keyboard-response","259","790438","0.0-3.0-1.206","../audio/06-3-masc.mp3"," ","","fala","","","",""
"","661","audio-keyboard-response","260","791678","0.0-3.0-1.207","../audio/06-4-masc.mp3"," ","","do","","","",""
"","1168","audio-keyboard-response","261","793620","0.0-3.0-1.208","../audio/06-5-masc.mp3"," ","","profeta","","","",""
"","701","audio-keyboard-response","262","794839","0.0-3.0-1.209","../audio/06-6-masc.mp3"," ","","no","","","",""
"","1291","audio-keyboard-response","263","796642","0.0-3.0-1.210","../audio/06-7-masc.mp3"," ","","púlpito","","","",""
"","709","audio-keyboard-response","264","797876","0.0-3.0-1.211","../audio/06-8-masc.mp3"," ","","da","","","",""
"","1349","audio-keyboard-response","265","799738","0.0-3.0-1.212","../audio/06-9-masc.mp3"," ","","igreja.","","","",""
"","null","html-keyboard-response","266","800993","0.0-3.0-0.213-0.213","<span style= ""font-size:30px; font-family: monospace"">+</span>","null","fixation","","","","",""
"","821","audio-keyboard-response","267","802841","0.0-3.0-1.213","../audio/07-1-masc.mp3"," ","","Meu","","","",""
"","949","audio-keyboard-response","268","804305","0.0-3.0-1.214","../audio/07-2-masc.mp3"," ","","filho","","","",""
"","640","audio-keyboard-response","269","805461","0.0-3.0-1.215","../audio/07-3-masc.mp3"," ","","é","","","",""
"","960","audio-keyboard-response","270","806933","0.0-3.0-1.216","../audio/07-4-masc.mp3"," ","","muito","","","",""
"","1339","audio-keyboard-response","271","809022","0.0-3.0-1.217","../audio/07-5-masc.mp3"," ","","responsável","","","",""
"","981","audio-keyboard-response","272","811006","0.0-3.0-1.218","../audio/07-6-masc.mp3"," ","","nos","","","",""
"","1168","audio-keyboard-response","273","812692","0.0-3.0-1.219","../audio/07-7-masc.mp3"," ","","estudos.","","","",""
"","null","html-keyboard-response","274","813944","0.0-3.0-0.220-0.220","<span style= ""font-size:30px; font-family: monospace"">+</span>","null","fixation","","","","",""
"","968","audio-keyboard-response","275","815940","0.0-3.0-1.220","../audio/10-1-masc.mp3"," ","","O","","","",""
"","1160","audio-keyboard-response","276","817625","0.0-3.0-1.221","../audio/10-2-masc.mp3"," ","","pássaro","","","",""
"","1019","audio-keyboard-response","277","819180","0.0-3.0-1.222","../audio/10-3-masc.mp3"," ","","azul","","","",""
"","1200","audio-keyboard-response","278","821615","0.0-3.0-1.223","../audio/10-4-masc.mp3"," ","","estava","","","",""
"","920","audio-keyboard-response","279","823040","0.0-3.0-1.224","../audio/10-5-masc.mp3"," ","","vivo","","","",""
"","611","audio-keyboard-response","280","824166","0.0-3.0-1.225","../audio/10-6-masc.mp3"," ","","e","","","",""
"","789","audio-keyboard-response","281","825464","0.0-3.0-1.226","../audio/10-7-masc.mp3"," ","","em","","","",""
"","1219","audio-keyboard-response","282","827455","0.0-3.0-1.227","../audio/10-8-masc.mp3"," ","","segurança.","","","",""
"","6497","html-keyboard-response","283","834203","0.0-3.0-2.227-0.227","<span style=""font-size:25px; font-family: monospace"">O pássaro vermelho estava em segurança?</span>","s","","","O pássaro vermelho estava em segurança?","null","exp-sent","false"
"","null","html-keyboard-response","284","835705","0.0-3.0-0.228-0.228","<span style= ""font-size:30px; font-family: monospace"">+</span>","null","fixation","","","","",""
"","379","audio-keyboard-response","285","837381","0.0-3.0-1.228","../audio/23-1-fem.mp3"," ","","Português","","","",""
"","8","audio-keyboard-response","286","837894","0.0-3.0-1.229","../audio/23-2-fem.mp3"," ","","é","","","",""
"","131","audio-keyboard-response","287","838544","0.0-3.0-1.230","../audio/23-3-fem.mp3"," ","","um","","","",""
"","1568","audio-keyboard-response","288","840856","0.0-3.0-1.231","../audio/23-4-fem.mp3"," ","","assunto","","","",""
"","2211","audio-keyboard-response","289","844310","0.0-3.0-1.232","../audio/23-5-fem.mp3"," ","","elementar","","","",""
"","600","audio-keyboard-response","290","845884","0.0-3.0-1.233","../audio/23-6-fem.mp3"," ","","para","","","",""
"","568","audio-keyboard-response","291","846978","0.0-3.0-1.234","../audio/23-7-fem.mp3"," ","","os","","","",""
"","1200","audio-keyboard-response","292","848912","0.0-3.0-1.235","../audio/23-8-fem.mp3"," ","","alunos.","","","",""
"","null","html-keyboard-response","293","850164","0.0-3.0-0.236-0.236","<span style= ""font-size:30px; font-family: monospace"">+</span>","null","fixation","","","","",""
"","1112","audio-keyboard-response","294","852326","0.0-3.0-1.236","../audio/24-1-masc.mp3"," ","","As","","","",""
"","1131","audio-keyboard-response","295","854206","0.0-3.0-1.237","../audio/24-2-masc.mp3"," ","","crianças","","","",""
"","789","audio-keyboard-response","296","855508","0.0-3.0-1.238","../audio/24-3-masc.mp3"," ","","vão","","","",""
"","749","audio-keyboard-response","297","856776","0.0-3.0-1.239","../audio/24-4-masc.mp3"," ","","ao","","","",""
"","949","audio-keyboard-response","298","858256","0.0-3.0-1.240","../audio/24-5-masc.mp3"," ","","cinema","","","",""
"","859","audio-keyboard-response","299","859621","0.0-3.0-1.241","../audio/24-6-masc.mp3"," ","","mais","","","",""
"","1069","audio-keyboard-response","300","861698","0.0-3.0-1.242","../audio/24-7-masc.mp3"," ","","tarde.","","","",""
"","null","html-keyboard-response","301","862950","0.0-3.0-0.243-0.243","<span style= ""font-size:30px; font-family: monospace"">+</span>","null","fixation","","","","",""
"","1331","audio-keyboard-response","302","865523","0.0-3.0-1.243","../audio/21-1-masc.mp3"," ","","Precisamos","","","",""
"","749","audio-keyboard-response","303","867471","0.0-3.0-1.244","../audio/21-2-masc.mp3"," ","","de","","","",""
"","1301","audio-keyboard-response","304","869528","0.0-3.0-1.245","../audio/21-3-masc.mp3"," ","","paciência","","","",""
"","629","audio-keyboard-response","305","871158","0.0-3.0-1.246","../audio/21-4-masc.mp3"," ","","e","","","",""
"","1139","audio-keyboard-response","306","873059","0.0-3.0-1.247","../audio/21-5-masc.mp3"," ","","bondade","","","",""
"","872","audio-keyboard-response","307","874449","0.0-3.0-1.248","../audio/21-6-masc.mp3"," ","","para","","","",""
"","760","audio-keyboard-response","308","875732","0.0-3.0-1.249","../audio/21-7-masc.mp3"," ","","um","","","",""
"","1149","audio-keyboard-response","309","877399","0.0-3.0-1.250","../audio/21-8-masc.mp3"," ","","mundo","","","",""
"","1611","audio-keyboard-response","310","879531","0.0-3.0-1.251","../audio/21-9-masc.mp3"," ","","melhor.","","","",""
"","null","html-keyboard-response","311","880783","0.0-3.0-0.252-0.252","<span style= ""font-size:30px; font-family: monospace"">+</span>","null","fixation","","","","",""
"","912","audio-keyboard-response","312","882933","0.0-3.0-1.252","../audio/22-1-fem.mp3"," ","","Eu","","","",""
"","1480","audio-keyboard-response","313","885180","0.0-3.0-1.253","../audio/22-2-fem.mp3"," ","","detesto","","","",""
"","968","audio-keyboard-response","314","887420","0.0-3.0-1.254","../audio/22-3-fem.mp3"," ","","fumaça","","","",""
"","608","audio-keyboard-response","315","888534","0.0-3.0-1.255","../audio/22-4-fem.mp3"," ","","de","","","",""
"","1661","audio-keyboard-response","316","890956","0.0-3.0-1.256","../audio/22-5-fem.mp3"," ","","cachimbo","","","",""
"","560","audio-keyboard-response","317","892511","0.0-3.0-1.257","../audio/22-6-fem.mp3"," ","","e","","","",""
"","552","audio-keyboard-response","318","893571","0.0-3.0-1.258","../audio/22-7-fem.mp3"," ","","de","","","",""
"","1299","audio-keyboard-response","319","895620","0.0-3.0-1.259","../audio/22-8-fem.mp3"," ","","cigarro.","","","",""
"","null","html-keyboard-response","320","896872","0.0-3.0-0.260-0.260","<span style= ""font-size:30px; font-family: monospace"">+</span>","null","fixation","","","","",""
"","992","audio-keyboard-response","321","898886","0.0-3.0-1.260","../audio/25-1-masc.mp3"," ","","Ela","","","",""
"","928","audio-keyboard-response","322","900341","0.0-3.0-1.261","../audio/25-2-masc.mp3"," ","","faz","","","",""
"","869","audio-keyboard-response","323","901721","0.0-3.0-1.262","../audio/25-3-masc.mp3"," ","","tanto","","","",""
"","888","audio-keyboard-response","324","903139","0.0-3.0-1.263","../audio/25-4-masc.mp3"," ","","cabelo","","","",""
"","891","audio-keyboard-response","325","904549","0.0-3.0-1.264","../audio/25-5-masc.mp3"," ","","liso","","","",""
"","981","audio-keyboard-response","326","906033","0.0-3.0-1.265","../audio/25-6-masc.mp3"," ","","quanto","","","",""
"","1301","audio-keyboard-response","327","908087","0.0-3.0-1.266","../audio/25-7-masc.mp3"," ","","cacheado.","","","",""
"","3882","html-keyboard-response","328","912220","0.0-3.0-2.266-0.266","<span style=""font-size:25px; font-family: monospace"">Ela só faz cabelo cacheado?</span>","s","","","Ela só faz cabelo cacheado?","null","exp-sent","false"
"","null","html-keyboard-response","329","913722","0.0-3.0-0.267-0.267","<span style= ""font-size:30px; font-family: monospace"">+</span>","null","fixation","","","","",""
"","1861","audio-keyboard-response","330","916568","0.0-3.0-1.267","../audio/17-1-masc.mp3"," ","","Falaram","","","",""
"","691","audio-keyboard-response","331","918248","0.0-3.0-1.268","../audio/17-2-masc.mp3"," ","","da","","","",""
"","149","audio-keyboard-response","332","918903","0.0-3.0-1.269","../audio/17-3-masc.mp3"," ","","lei","","","",""
"","2400","audio-keyboard-response","333","921819","0.0-3.0-1.270","../audio/17-4-masc.mp3"," ","","no","","","",""
"","931","audio-keyboard-response","334","923964","0.0-3.0-1.271","../audio/17-5-masc.mp3"," ","","ministério","","","",""
"","731","audio-keyboard-response","335","925444","0.0-3.0-1.272","../audio/17-6-masc.mp3"," ","","diversas","","","",""
"","699","audio-keyboard-response","336","926708","0.0-3.0-1.273","../audio/17-7-masc.mp3"," ","","vezes.","","","",""
"","null","html-keyboard-response","337","927966","0.0-3.0-0.274-0.274","<span style= ""font-size:30px; font-family: monospace"">+</span>","null","fixation","","","","",""
"","1379","audio-keyboard-response","338","930380","0.0-3.0-1.274","../audio/18-1-masc.mp3"," ","","O","","","",""
"","4061","audio-keyboard-response","339","935673","0.0-3.0-1.275","../audio/18-2-masc.mp3"," ","","enredo","","","",""
"","1000","audio-keyboard-response","340","937664","0.0-3.0-1.276","../audio/18-3-masc.mp3"," ","","traz","","","",""
"","1181","audio-keyboard-response","341","939360","0.0-3.0-1.277","../audio/18-4-masc.mp3"," ","","um","","","",""
"","992","audio-keyboard-response","342","941330","0.0-3.0-1.278","../audio/18-5-masc.mp3"," ","","dragão","","","",""
"","659","audio-keyboard-response","343","942502","0.0-3.0-1.279","../audio/18-6-masc.mp3"," ","","forte","","","",""
"","589","audio-keyboard-response","344","943586","0.0-3.0-1.280","../audio/18-7-masc.mp3"," ","","e","","","",""
"","1640","audio-keyboard-response","345","945979","0.0-3.0-1.281","../audio/18-8-masc.mp3"," ","","solitário.","","","",""
"","null","html-keyboard-response","346","947241","0.0-3.0-0.282-0.282","<span style= ""font-size:30px; font-family: monospace"">+</span>","null","fixation","","","","",""
"","680","audio-keyboard-response","347","948939","0.0-3.0-1.282","../audio/16-1-masc.mp3"," ","","Eu","","","",""
"","939","audio-keyboard-response","348","950419","0.0-3.0-1.283","../audio/16-2-masc.mp3"," ","","nunca","","","",""
"","1120","audio-keyboard-response","349","952293","0.0-3.0-1.284","../audio/16-3-masc.mp3"," ","","conheci","","","",""
"","608","audio-keyboard-response","350","953415","0.0-3.0-1.285","../audio/16-4-masc.mp3"," ","","um","","","",""
"","1080","audio-keyboard-response","351","955017","0.0-3.0-1.286","../audio/16-5-masc.mp3"," ","","general","","","",""
"","659","audio-keyboard-response","352","956191","0.0-3.0-1.287","../audio/16-6-masc.mp3"," ","","do","","","",""
"","1011","audio-keyboard-response","353","957964","0.0-3.0-1.288","../audio/16-7-masc.mp3"," ","","exército.","","","",""
"","null","html-keyboard-response","354","959225","0.0-3.0-0.289-0.289","<span style= ""font-size:30px; font-family: monospace"">+</span>","null","fixation","","","","",""
"","1269","audio-keyboard-response","355","961504","0.0-3.0-1.289","../audio/19-1-fem.mp3"," ","","O","","","",""
"","1280","audio-keyboard-response","356","963293","0.0-3.0-1.290","../audio/19-2-fem.mp3"," ","","menino","","","",""
"","920","audio-keyboard-response","357","964724","0.0-3.0-1.291","../audio/19-3-fem.mp3"," ","","ganhou","","","",""
"","589","audio-keyboard-response","358","965840","0.0-3.0-1.292","../audio/19-4-fem.mp3"," ","","uma","","","",""
"","608","audio-keyboard-response","359","966979","0.0-3.0-1.293","../audio/19-5-fem.mp3"," ","","bala","","","",""
"","789","audio-keyboard-response","360","968300","0.0-3.0-1.294","../audio/19-6-fem.mp3"," ","","depois","","","",""
"","640","audio-keyboard-response","361","969465","0.0-3.0-1.295","../audio/19-7-fem.mp3"," ","","do","","","",""
"","1240","audio-keyboard-response","362","971994","0.0-3.0-1.296","../audio/19-8-fem.mp3"," ","","almoço.","","","",""
"","null","html-keyboard-response","363","973245","0.0-3.0-0.297-0.297","<span style= ""font-size:30px; font-family: monospace"">+</span>","null","fixation","","","","",""
"","691","audio-keyboard-response","364","974443","0.0-3.0-1.297","../audio/20-1-masc.mp3"," ","","O","","","",""
"","981","audio-keyboard-response","365","976205","0.0-3.0-1.298","../audio/20-2-masc.mp3"," ","","colega","","","",""
"","1059","audio-keyboard-response","366","978026","0.0-3.0-1.299","../audio/20-3-masc.mp3"," ","","parecia","","","",""
"","621","audio-keyboard-response","367","979163","0.0-3.0-1.300","../audio/20-4-masc.mp3"," ","","muito","","","",""
"","939","audio-keyboard-response","368","981343","0.0-3.0-1.301","../audio/20-5-masc.mp3"," ","","gripado","","","",""
"","731","audio-keyboard-response","369","982594","0.0-3.0-1.302","../audio/20-6-masc.mp3"," ","","no","","","",""
"","760","audio-keyboard-response","370","983866","0.0-3.0-1.303","../audio/20-7-masc.mp3"," ","","dia","","","",""
"","1229","audio-keyboard-response","371","985868","0.0-3.0-1.304","../audio/20-8-masc.mp3"," ","","anterior.","","","",""
"","4270","html-keyboard-response","372","990389","0.0-3.0-2.304-0.304","<span style=""font-size:25px; font-family: monospace"">O colega parecia muito gripado?</span>","s","","","O colega parecia muito gripado?","null","exp-sent","false"
"","null","html-keyboard-response","373","991891","0.0-3.0-0.305-0.305","<span style= ""font-size:30px; font-family: monospace"">+</span>","null","fixation","","","","",""
"","91","audio-keyboard-response","374","992989","0.0-3.0-1.305","../audio/14-1-masc.mp3"," ","","O","","","",""
"","120","audio-keyboard-response","375","993658","0.0-3.0-1.306","../audio/14-2-masc.mp3"," ","","cachorro","","","",""
"","80","audio-keyboard-response","376","994291","0.0-3.0-1.307","../audio/14-3-masc.mp3"," ","","é","","","",""
"","1040","audio-keyboard-response","377","995855","0.0-3.0-1.308","../audio/14-4-masc.mp3"," ","","muito","","","",""
"","1272","audio-keyboard-response","378","997650","0.0-3.0-1.309","../audio/14-5-masc.mp3"," ","","fiel","","","",""
"","909","audio-keyboard-response","379","999075","0.0-3.0-1.310","../audio/14-6-masc.mp3"," ","","a","","","",""
"","1259","audio-keyboard-response","380","1001348","0.0-3.0-1.311","../audio/14-7-masc.mp3"," ","","seus","","","",""
"","1011","audio-keyboard-response","381","1002863","0.0-3.0-1.312","../audio/14-8-masc.mp3"," ","","donos.","","","",""
"","null","html-keyboard-response","382","1004115","0.0-3.0-0.313-0.313","<span style= ""font-size:30px; font-family: monospace"">+</span>","null","fixation","","","","",""
"","752","audio-keyboard-response","383","1005886","0.0-3.0-1.313","../audio/11-1-masc.mp3"," ","","Elas","","","",""
"","960","audio-keyboard-response","384","1007375","0.0-3.0-1.314","../audio/11-2-masc.mp3"," ","","gostam","","","",""
"","821","audio-keyboard-response","385","1008731","0.0-3.0-1.315","../audio/11-3-masc.mp3"," ","","muito","","","",""
"","621","audio-keyboard-response","386","1009888","0.0-3.0-1.316","../audio/11-4-masc.mp3"," ","","de","","","",""
"","1512","audio-keyboard-response","387","1012648","0.0-3.0-1.317","../audio/11-5-masc.mp3"," ","","aritmética","","","",""
"","661","audio-keyboard-response","388","1014287","0.0-3.0-1.318","../audio/11-6-masc.mp3"," ","","e","","","",""
"","901","audio-keyboard-response","389","1015715","0.0-3.0-1.319","../audio/11-7-masc.mp3"," ","","de","","","",""
"","1131","audio-keyboard-response","390","1017588","0.0-3.0-1.320","../audio/11-8-masc.mp3"," ","","leitura.","","","",""
"","null","html-keyboard-response","391","1018840","0.0-3.0-0.321-0.321","<span style= ""font-size:30px; font-family: monospace"">+</span>","null","fixation","","","","",""
"","720","audio-keyboard-response","392","1020551","0.0-3.0-1.321","../audio/12-1-fem.mp3"," ","","O","","","",""
"","680","audio-keyboard-response","393","1021840","0.0-3.0-1.322","../audio/12-2-fem.mp3"," ","","dia","","","",""
"","3901","audio-keyboard-response","394","1026486","0.0-3.0-1.323","../audio/12-3-fem.mp3"," ","","estava","","","",""
"","891","audio-keyboard-response","395","1028386","0.0-3.0-1.324","../audio/12-4-fem.mp3"," ","","quente,","","","",""
"","1509","audio-keyboard-response","396","1030634","0.0-3.0-1.325","../audio/12-5-fem.mp3"," ","","tranquilo","","","",""
"","1749","audio-keyboard-response","397","1033385","0.0-3.0-1.326","../audio/12-6-fem.mp3"," ","","e","","","",""
"","1280","audio-keyboard-response","398","1035896","0.0-3.0-1.327","../audio/12-7-fem.mp3"," ","","ensolarado.","","","",""
"","null","html-keyboard-response","399","1037165","0.0-3.0-0.328-0.328","<span style= ""font-size:30px; font-family: monospace"">+</span>","null","fixation","","","","",""
"","171","audio-keyboard-response","400","1038392","0.0-3.0-1.328","../audio/13-1-fem.mp3"," ","","Para","","","",""
"","1059","audio-keyboard-response","401","1039976","0.0-3.0-1.329","../audio/13-2-fem.mp3"," ","","mim","","","",""
"","760","audio-keyboard-response","402","1041786","0.0-3.0-1.330","../audio/13-3-fem.mp3"," ","","é","","","",""
"","859","audio-keyboard-response","403","1043175","0.0-3.0-1.331","../audio/13-4-fem.mp3"," ","","muito","","","",""
"","1061","audio-keyboard-response","404","1045005","0.0-3.0-1.332","../audio/13-5-fem.mp3"," ","","difícil","","","",""
"","1291","audio-keyboard-response","405","1047069","0.0-3.0-1.333","../audio/13-6-fem.mp3"," ","","acordar","","","",""
"","1051","audio-keyboard-response","406","1048825","0.0-3.0-1.334","../audio/13-7-fem.mp3"," ","","cedo.","","","",""
"","null","html-keyboard-response","407","1050076","0.0-3.0-0.335-0.335","<span style= ""font-size:30px; font-family: monospace"">+</span>","null","fixation","","","","",""
"","880","audio-keyboard-response","408","1051993","0.0-3.0-1.335","../audio/15-1-fem.mp3"," ","","Meu","","","",""
"","691","audio-keyboard-response","409","1053199","0.0-3.0-1.336","../audio/15-2-fem.mp3"," ","","primo","","","",""
"","549","audio-keyboard-response","410","1054314","0.0-3.0-1.337","../audio/15-3-fem.mp3"," ","","é","","","",""
"","661","audio-keyboard-response","411","1055477","0.0-3.0-1.338","../audio/15-4-fem.mp3"," ","","um","","","",""
"","899","audio-keyboard-response","412","1057189","0.0-3.0-1.339","../audio/15-5-fem.mp3"," ","","grande","","","",""
"","768","audio-keyboard-response","413","1058740","0.0-3.0-1.340","../audio/15-6-fem.mp3"," ","","vendedor","","","",""
"","648","audio-keyboard-response","414","1059893","0.0-3.0-1.341","../audio/15-7-fem.mp3"," ","","de","","","",""
"","939","audio-keyboard-response","415","1062070","0.0-3.0-1.342","../audio/15-8-fem.mp3"," ","","carros.","","","",""
"","4080","html-keyboard-response","416","1066401","0.0-3.0-2.342-0.342","<span style=""font-size:25px; font-family: monospace"">O primo é um vendedor de carros?</span>","s","","","O primo é um vendedor de carros?","null","exp-sent","false"
"","null","html-keyboard-response","417","1067905","0.0-3.0-0.343-0.343","<span style= ""font-size:30px; font-family: monospace"">+</span>","null","fixation","","","","",""
"","720","audio-keyboard-response","418","1069170","0.0-3.0-1.343","../audio/59-1-fem.mp3"," ","","O","","","",""
"","571","audio-keyboard-response","419","1070958","0.0-3.0-1.344","../audio/59-2-fem.mp3"," ","","carteiro","","","",""
"","141","audio-keyboard-response","420","1071612","0.0-3.0-1.345","../audio/59-3-fem.mp3"," ","","fez","","","",""
"","11","audio-keyboard-response","421","1072123","0.0-3.0-1.346","../audio/59-4-fem.mp3"," ","","uma","","","",""
"","80","audio-keyboard-response","422","1072770","0.0-3.0-1.347","../audio/59-5-fem.mp3"," ","","tentativa","","","",""
"","760","audio-keyboard-response","423","1074033","0.0-3.0-1.348","../audio/59-6-fem.mp3"," ","","de","","","",""
"","1621","audio-keyboard-response","424","1076400","0.0-3.0-1.349","../audio/59-7-fem.mp3"," ","","entrega.","","","",""
"","null","html-keyboard-response","425","1077652","0.0-3.0-0.350-0.350","<span style= ""font-size:30px; font-family: monospace"">+</span>","null","fixation","","","","",""
"","189","audio-keyboard-response","426","1078829","0.0-3.0-1.350","../audio/58-1-fem.mp3"," ","","Havia","","","",""
"","1301","audio-keyboard-response","427","1080881","0.0-3.0-1.351","../audio/58-2-fem.mp3"," ","","apenas","","","",""
"","600","audio-keyboard-response","428","1082653","0.0-3.0-1.352","../audio/58-3-fem.mp3"," ","","um","","","",""
"","592","audio-keyboard-response","429","1083771","0.0-3.0-1.353","../audio/58-4-fem.mp3"," ","","último","","","",""
"","851","audio-keyboard-response","430","1085151","0.0-3.0-1.354","../audio/58-5-fem.mp3"," ","","herdeiro","","","",""
"","749","audio-keyboard-response","431","1086430","0.0-3.0-1.355","../audio/58-6-fem.mp3"," ","","do","","","",""
"","989","audio-keyboard-response","432","1088275","0.0-3.0-1.356","../audio/58-7-fem.mp3"," ","","dinheiro.","","","",""
"","null","html-keyboard-response","433","1089527","0.0-3.0-0.357-0.357","<span style= ""font-size:30px; font-family: monospace"">+</span>","null","fixation","","","","",""
"","869","audio-keyboard-response","434","1091436","0.0-3.0-1.357","../audio/56-1-masc.mp3"," ","","A","","","",""
"","960","audio-keyboard-response","435","1092903","0.0-3.0-1.358","../audio/56-2-masc.mp3"," ","","moça","","","",""
"","819","audio-keyboard-response","436","1094253","0.0-3.0-1.359","../audio/56-3-masc.mp3"," ","","foi","","","",""
"","699","audio-keyboard-response","437","1095467","0.0-3.0-1.360","../audio/56-4-masc.mp3"," ","","à","","","",""
"","1051","audio-keyboard-response","438","1097269","0.0-3.0-1.361","../audio/56-5-masc.mp3"," ","","agência","","","",""
"","1269","audio-keyboard-response","439","1099336","0.0-3.0-1.362","../audio/56-6-masc.mp3"," ","","bancária","","","",""
"","941","audio-keyboard-response","440","1101291","0.0-3.0-1.363","../audio/56-7-masc.mp3"," ","","ontem","","","",""
"","1080","audio-keyboard-response","441","1102931","0.0-3.0-1.364","../audio/56-8-masc.mp3"," ","","de","","","",""
"","1691","audio-keyboard-response","442","1105157","0.0-3.0-1.365","../audio/56-9-masc.mp3"," ","","tarde.","","","",""
"","null","html-keyboard-response","443","1106410","0.0-3.0-0.366-0.366","<span style= ""font-size:30px; font-family: monospace"">+</span>","null","fixation","","","","",""
"","61","audio-keyboard-response","444","1107485","0.0-3.0-1.366","../audio/57-1-masc.mp3"," ","","O","","","",""
"","1072","audio-keyboard-response","445","1109087","0.0-3.0-1.367","../audio/57-2-masc.mp3"," ","","capitão","","","",""
"","760","audio-keyboard-response","446","1110854","0.0-3.0-1.368","../audio/57-3-masc.mp3"," ","","deu","","","",""
"","931","audio-keyboard-response","447","1112308","0.0-3.0-1.369","../audio/57-4-masc.mp3"," ","","uma","","","",""
"","1211","audio-keyboard-response","448","1114280","0.0-3.0-1.370","../audio/57-5-masc.mp3"," ","","instrução","","","",""
"","811","audio-keyboard-response","449","1115603","0.0-3.0-1.371","../audio/57-6-masc.mp3"," ","","para","","","",""
"","789","audio-keyboard-response","450","1116919","0.0-3.0-1.372","../audio/57-7-masc.mp3"," ","","as","","","",""
"","1288","audio-keyboard-response","451","1118978","0.0-3.0-1.373","../audio/57-8-masc.mp3"," ","","pessoas.","","","",""
"","null","html-keyboard-response","452","1120235","0.0-3.0-0.374-0.374","<span style= ""font-size:30px; font-family: monospace"">+</span>","null","fixation","","","","",""
"","1200","audio-keyboard-response","453","1122711","0.0-3.0-1.374","../audio/60-1-fem.mp3"," ","","Ondas","","","",""
"","701","audio-keyboard-response","454","1123929","0.0-3.0-1.375","../audio/60-2-fem.mp3"," ","","têm","","","",""
"","880","audio-keyboard-response","455","1125365","0.0-3.0-1.376","../audio/60-3-fem.mp3"," ","","um","","","",""
"","1371","audio-keyboard-response","456","1127491","0.0-3.0-1.377","../audio/60-4-fem.mp3"," ","","impacto","","","",""
"","1731","audio-keyboard-response","457","1130636","0.0-3.0-1.378","../audio/60-5-fem.mp3"," ","","destrutivo","","","",""
"","781","audio-keyboard-response","458","1132408","0.0-3.0-1.379","../audio/60-6-fem.mp3"," ","","no","","","",""
"","1171","audio-keyboard-response","459","1134328","0.0-3.0-1.380","../audio/60-7-fem.mp3"," ","","litoral.","","","",""
"","4089","html-keyboard-response","460","1138669","0.0-3.0-2.380-0.380","<span style=""font-size:25px; font-family: monospace"">Ondas têm um impacto destrutivo?</span>","s","","","Ondas têm um impacto destrutivo?","null","exp-sent","false"
"","null","html-keyboard-response","461","1140170","0.0-3.0-0.381-0.381","<span style= ""font-size:30px; font-family: monospace"">+</span>","null","fixation","","","","",""
"","989","audio-keyboard-response","462","1142178","0.0-3.0-1.381","../audio/44-1-masc.mp3"," ","","Meus","","","",""
"","32","audio-keyboard-response","463","1142729","0.0-3.0-1.382","../audio/44-2-masc.mp3"," ","","irmãos","","","",""
"","19","audio-keyboard-response","464","1143254","0.0-3.0-1.383","../audio/44-3-masc.mp3"," ","","brigam","","","",""
"","181","audio-keyboard-response","465","1143955","0.0-3.0-1.384","../audio/44-4-masc.mp3"," ","","por","","","",""
"","251","audio-keyboard-response","466","1144955","0.0-3.0-1.385","../audio/44-5-masc.mp3"," ","","bobagem","","","",""
"","8","audio-keyboard-response","467","1145498","0.0-3.0-1.386","../audio/44-6-masc.mp3"," ","","todos","","","",""
"","1472","audio-keyboard-response","468","1147484","0.0-3.0-1.387","../audio/44-7-masc.mp3"," ","","os","","","",""
"","880","audio-keyboard-response","469","1148876","0.0-3.0-1.388","../audio/44-8-masc.mp3"," ","","dias.","","","",""
"","null","html-keyboard-response","470","1150128","0.0-3.0-0.389-0.389","<span style= ""font-size:30px; font-family: monospace"">+</span>","null","fixation","","","","",""
"","709","audio-keyboard-response","471","1151827","0.0-3.0-1.389","../audio/43-1-fem.mp3"," ","","Eu","","","",""
"","1229","audio-keyboard-response","472","1153832","0.0-3.0-1.390","../audio/43-2-fem.mp3"," ","","achei","","","",""
"","760","audio-keyboard-response","473","1155093","0.0-3.0-1.391","../audio/43-3-fem.mp3"," ","","um","","","",""
"","1080","audio-keyboard-response","474","1156693","0.0-3.0-1.392","../audio/43-4-fem.mp3"," ","","colchão","","","",""
"","819","audio-keyboard-response","475","1158024","0.0-3.0-1.393","../audio/43-5-fem.mp3"," ","","velho","","","",""
"","531","audio-keyboard-response","476","1159073","0.0-3.0-1.394","../audio/43-6-fem.mp3"," ","","e","","","",""
"","600","audio-keyboard-response","477","1160657","0.0-3.0-1.395","../audio/43-7-fem.mp3"," ","","imundo","","","",""
"","688","audio-keyboard-response","478","1161854","0.0-3.0-1.396","../audio/43-8-fem.mp3"," ","","na","","","",""
"","880","audio-keyboard-response","479","1163245","0.0-3.0-1.397","../audio/43-9-fem.mp3"," ","","casa.","","","",""
"","null","html-keyboard-response","480","1164497","0.0-3.0-0.398-0.398","<span style= ""font-size:30px; font-family: monospace"">+</span>","null","fixation","","","","",""
"","1219","audio-keyboard-response","481","1166696","0.0-3.0-1.398","../audio/41-1-fem.mp3"," ","","A","","","",""
"","1211","audio-keyboard-response","482","1168665","0.0-3.0-1.399","../audio/41-2-fem.mp3"," ","","novela","","","",""
"","840","audio-keyboard-response","483","1170266","0.0-3.0-1.400","../audio/41-3-fem.mp3"," ","","falava","","","",""
"","1021","audio-keyboard-response","484","1171796","0.0-3.0-1.401","../audio/41-4-fem.mp3"," ","","de","","","",""
"","1131","audio-keyboard-response","485","1173678","0.0-3.0-1.402","../audio/41-5-fem.mp3"," ","","paixão","","","",""
"","600","audio-keyboard-response","486","1174802","0.0-3.0-1.403","../audio/41-6-fem.mp3"," ","","e","","","",""
"","1051","audio-keyboard-response","487","1176598","0.0-3.0-1.404","../audio/41-7-fem.mp3"," ","","comédia.","","","",""
"","null","html-keyboard-response","488","1177850","0.0-3.0-0.405-0.405","<span style= ""font-size:30px; font-family: monospace"">+</span>","null","fixation","","","","",""
"","861","audio-keyboard-response","489","1179673","0.0-3.0-1.405","../audio/42-1-masc.mp3"," ","","Eu","","","",""
"","669","audio-keyboard-response","490","1181339","0.0-3.0-1.406","../audio/42-2-masc.mp3"," ","","fui","","","",""
"","680","audio-keyboard-response","491","1182671","0.0-3.0-1.407","../audio/42-3-masc.mp3"," ","","a","","","",""
"","872","audio-keyboard-response","492","1184050","0.0-3.0-1.408","../audio/42-4-masc.mp3"," ","","uma","","","",""
"","949","audio-keyboard-response","493","1185512","0.0-3.0-1.409","../audio/42-5-masc.mp3"," ","","loja","","","",""
"","541","audio-keyboard-response","494","1186570","0.0-3.0-1.410","../audio/42-6-masc.mp3"," ","","de","","","",""
"","920","audio-keyboard-response","495","1188261","0.0-3.0-1.411","../audio/42-7-masc.mp3"," ","","móveis","","","",""
"","931","audio-keyboard-response","496","1189710","0.0-3.0-1.412","../audio/42-8-masc.mp3"," ","","no","","","",""
"","1221","audio-keyboard-response","497","1192168","0.0-3.0-1.413","../audio/42-9-masc.mp3"," ","","bairro.","","","",""
"","null","html-keyboard-response","498","1193420","0.0-3.0-0.414-0.414","<span style= ""font-size:30px; font-family: monospace"">+</span>","null","fixation","","","","",""
"","611","audio-keyboard-response","499","1195005","0.0-3.0-1.414","../audio/45-1-fem.mp3"," ","","O","","","",""
"","891","audio-keyboard-response","500","1196405","0.0-3.0-1.415","../audio/45-2-fem.mp3"," ","","homem","","","",""
"","760","audio-keyboard-response","501","1197713","0.0-3.0-1.416","../audio/45-3-fem.mp3"," ","","pagou","","","",""
"","541","audio-keyboard-response","502","1198756","0.0-3.0-1.417","../audio/45-4-fem.mp3"," ","","o","","","",""
"","440","audio-keyboard-response","503","1199775","0.0-3.0-1.418","../audio/45-5-fem.mp3"," ","","aluguel","","","",""
"","621","audio-keyboard-response","504","1200921","0.0-3.0-1.419","../audio/45-6-fem.mp3"," ","","com","","","",""
"","1040","audio-keyboard-response","505","1202696","0.0-3.0-1.420","../audio/45-7-fem.mp3"," ","","atraso.","","","",""
"","5217","html-keyboard-response","506","1208163","0.0-3.0-2.420-0.420","<span style=""font-size:25px; font-family: monospace"">O homem pagou o aluguel em dia?</span>","n","","","O homem pagou o aluguel em dia?","null","exp-sent","false"
"","null","html-keyboard-response","507","1209665","0.0-3.0-0.421-0.421","<span style= ""font-size:30px; font-family: monospace"">+</span>","null","fixation","","","","",""
"","248","audio-keyboard-response","508","1210897","0.0-3.0-1.421","../audio/33-1-masc.mp3"," ","","Eles","","","",""
"","40","audio-keyboard-response","509","1211462","0.0-3.0-1.422","../audio/33-2-masc.mp3"," ","","sabem","","","",""
"","152","audio-keyboard-response","510","1212123","0.0-3.0-1.423","../audio/33-3-masc.mp3"," ","","do","","","",""
"","120","audio-keyboard-response","511","1212793","0.0-3.0-1.424","../audio/33-4-masc.mp3"," ","","seu","","","",""
"","69","audio-keyboard-response","512","1213613","0.0-3.0-1.425","../audio/33-5-masc.mp3"," ","","privilégio","","","",""
"","160","audio-keyboard-response","513","1214290","0.0-3.0-1.426","../audio/33-6-masc.mp3"," ","","nessa","","","",""
"","139","audio-keyboard-response","514","1214943","0.0-3.0-1.427","../audio/33-7-masc.mp3"," ","","confusão.","","","",""
"","null","html-keyboard-response","515","1216219","0.0-3.0-0.428-0.428","<span style= ""font-size:30px; font-family: monospace"">+</span>","null","fixation","","","","",""
"","1099","audio-keyboard-response","516","1217821","0.0-3.0-1.428","../audio/32-1-fem.mp3"," ","","A","","","",""
"","792","audio-keyboard-response","517","1219128","0.0-3.0-1.429","../audio/32-2-fem.mp3"," ","","tia","","","",""
"","1141","audio-keyboard-response","518","1221244","0.0-3.0-1.430","../audio/32-3-fem.mp3"," ","","comprou","","","",""
"","589","audio-keyboard-response","519","1222345","0.0-3.0-1.431","../audio/32-4-fem.mp3"," ","","um","","","",""
"","1051","audio-keyboard-response","520","1224192","0.0-3.0-1.432","../audio/32-5-fem.mp3"," ","","pilão","","","",""
"","501","audio-keyboard-response","521","1225196","0.0-3.0-1.433","../audio/32-6-fem.mp3"," ","","para","","","",""
"","600","audio-keyboard-response","522","1226296","0.0-3.0-1.434","../audio/32-7-fem.mp3"," ","","a","","","",""
"","840","audio-keyboard-response","523","1227868","0.0-3.0-1.435","../audio/32-8-fem.mp3"," ","","cozinha.","","","",""
"","null","html-keyboard-response","524","1229120","0.0-3.0-0.436-0.436","<span style= ""font-size:30px; font-family: monospace"">+</span>","null","fixation","","","","",""
"","1040","audio-keyboard-response","525","1231211","0.0-3.0-1.436","../audio/31-1-fem.mp3"," ","","O","","","",""
"","1160","audio-keyboard-response","526","1233136","0.0-3.0-1.437","../audio/31-2-fem.mp3"," ","","padeiro","","","",""
"","851","audio-keyboard-response","527","1234517","0.0-3.0-1.438","../audio/31-3-fem.mp3"," ","","usou","","","",""
"","579","audio-keyboard-response","528","1235614","0.0-3.0-1.439","../audio/31-4-fem.mp3"," ","","a","","","",""
"","1488","audio-keyboard-response","529","1237893","0.0-3.0-1.440","../audio/31-5-fem.mp3"," ","","balança","","","",""
"","640","audio-keyboard-response","530","1239523","0.0-3.0-1.441","../audio/31-6-fem.mp3"," ","","o","","","",""
"","928","audio-keyboard-response","531","1241456","0.0-3.0-1.442","../audio/31-7-fem.mp3"," ","","dia","","","",""
"","1709","audio-keyboard-response","532","1243939","0.0-3.0-1.443","../audio/31-8-fem.mp3"," ","","inteiro.","","","",""
"","null","html-keyboard-response","533","1245190","0.0-3.0-0.444-0.444","<span style= ""font-size:30px; font-family: monospace"">+</span>","null","fixation","","","","",""
"","1248","audio-keyboard-response","534","1247700","0.0-3.0-1.444","../audio/34-1-fem.mp3"," ","","Cobrança","","","",""
"","1371","audio-keyboard-response","535","1250074","0.0-3.0-1.445","../audio/34-2-fem.mp3"," ","","excessiva","","","",""
"","501","audio-keyboard-response","536","1251647","0.0-3.0-1.446","../audio/34-3-fem.mp3"," ","","é","","","",""
"","619","audio-keyboard-response","537","1252790","0.0-3.0-1.447","../audio/34-4-fem.mp3"," ","","um","","","",""
"","5240","audio-keyboard-response","538","1258540","0.0-3.0-1.448","../audio/34-5-fem.mp3"," ","","fardo","","","",""
"","1299","audio-keyboard-response","539","1260828","0.0-3.0-1.449","../audio/34-6-fem.mp3"," ","","para","","","",""
"","1600","audio-keyboard-response","540","1262946","0.0-3.0-1.450","../audio/34-7-fem.mp3"," ","","a","","","",""
"","1480","audio-keyboard-response","541","1265785","0.0-3.0-1.451","../audio/34-8-fem.mp3"," ","","cabeça.","","","",""
"","null","html-keyboard-response","542","1267037","0.0-3.0-0.452-0.452","<span style= ""font-size:30px; font-family: monospace"">+</span>","null","fixation","","","","",""
"","1331","audio-keyboard-response","543","1269344","0.0-3.0-1.452","../audio/35-1-masc.mp3"," ","","A","","","",""
"","2579","audio-keyboard-response","544","1273140","0.0-3.0-1.453","../audio/35-2-masc.mp3"," ","","receita","","","",""
"","2328","audio-keyboard-response","545","1276494","0.0-3.0-1.454","../audio/35-3-masc.mp3"," ","","para","","","",""
"","3669","audio-keyboard-response","546","1281146","0.0-3.0-1.455","../audio/35-4-masc.mp3"," ","","a","","","",""
"","1768","audio-keyboard-response","547","1284143","0.0-3.0-1.456","../audio/35-5-masc.mp3"," ","","preparação","","","",""
"","1149","audio-keyboard-response","548","1286298","0.0-3.0-1.457","../audio/35-6-masc.mp3"," ","","do","","","",""
"","1181","audio-keyboard-response","549","1288044","0.0-3.0-1.458","../audio/35-7-masc.mp3"," ","","bolo","","","",""
"","1261","audio-keyboard-response","550","1289852","0.0-3.0-1.459","../audio/35-8-masc.mp3"," ","","é","","","",""
"","1800","audio-keyboard-response","551","1292643","0.0-3.0-1.460","../audio/35-9-masc.mp3"," ","","leve.","","","",""
"","7157","html-keyboard-response","552","1300051","0.0-3.0-2.460-0.460","<span style=""font-size:25px; font-family: monospace"">A receita do bolo é pesada?</span>","n","","","A receita do bolo é pesada?","null","exp-sent","false"
"","null","html-keyboard-response","553","1301552","0.0-3.0-0.461-0.461","<span style= ""font-size:30px; font-family: monospace"">+</span>","null","fixation","","","","",""
"","139","audio-keyboard-response","554","1302696","0.0-3.0-1.461","../audio/66-1-masc.mp3"," ","","Não","","","",""
"","152","audio-keyboard-response","555","1303368","0.0-3.0-1.462","../audio/66-2-masc.mp3"," ","","gosto","","","",""
"","171","audio-keyboard-response","556","1304050","0.0-3.0-1.463","../audio/66-3-masc.mp3"," ","","de","","","",""
"","0","audio-keyboard-response","557","1304591","0.0-3.0-1.464","../audio/66-4-masc.mp3"," ","","gente","","","",""
"","11","audio-keyboard-response","558","1305114","0.0-3.0-1.465","../audio/66-5-masc.mp3"," ","","egoísta","","","",""
"","29","audio-keyboard-response","559","1305654","0.0-3.0-1.466","../audio/66-6-masc.mp3"," ","","nem","","","",""
"","11","audio-keyboard-response","560","1306204","0.0-3.0-1.467","../audio/66-7-masc.mp3"," ","","chata.","","","",""
"","null","html-keyboard-response","561","1307456","0.0-3.0-0.468-0.468","<span style= ""font-size:30px; font-family: monospace"">+</span>","null","fixation","","","","",""
"","112","audio-keyboard-response","562","1308088","0.0-3.0-1.468","../audio/68-1-masc.mp3"," ","","Meu","","","",""
"","1429","audio-keyboard-response","563","1310025","0.0-3.0-1.469","../audio/68-2-masc.mp3"," ","","irmão","","","",""
"","141","audio-keyboard-response","564","1311194","0.0-3.0-1.470","../audio/68-3-masc.mp3"," ","","teve","","","",""
"","149","audio-keyboard-response","565","1311871","0.0-3.0-1.471","../audio/68-4-masc.mp3"," ","","um","","","",""
"","240","audio-keyboard-response","566","1312930","0.0-3.0-1.472","../audio/68-5-masc.mp3"," ","","noivado","","","",""
"","891","audio-keyboard-response","567","1314343","0.0-3.0-1.473","../audio/68-6-masc.mp3"," ","","longo","","","",""
"","640","audio-keyboard-response","568","1315493","0.0-3.0-1.474","../audio/68-7-masc.mp3"," ","","e","","","",""
"","600","audio-keyboard-response","569","1316846","0.0-3.0-1.475","../audio/68-8-masc.mp3"," ","","maravilhoso.","","","",""
"","null","html-keyboard-response","570","1318098","0.0-3.0-0.476-0.476","<span style= ""font-size:30px; font-family: monospace"">+</span>","null","fixation","","","","",""
"","829","audio-keyboard-response","571","1319915","0.0-3.0-1.476","../audio/69-1-fem.mp3"," ","","A","","","",""
"","1531","audio-keyboard-response","572","1322677","0.0-3.0-1.477","../audio/69-2-fem.mp3"," ","","loja","","","",""
"","1211","audio-keyboard-response","573","1325164","0.0-3.0-1.478","../audio/69-3-fem.mp3"," ","","recebeu","","","",""
"","1389","audio-keyboard-response","574","1327069","0.0-3.0-1.479","../audio/69-4-fem.mp3"," ","","uma","","","",""
"","1299","audio-keyboard-response","575","1329143","0.0-3.0-1.480","../audio/69-5-fem.mp3"," ","","poltrona","","","",""
"","819","audio-keyboard-response","576","1330939","0.0-3.0-1.481","../audio/69-6-fem.mp3"," ","","de","","","",""
"","979","audio-keyboard-response","577","1332426","0.0-3.0-1.482","../audio/69-7-fem.mp3"," ","","couro","","","",""
"","2461","audio-keyboard-response","578","1335407","0.0-3.0-1.483","../audio/69-8-fem.mp3"," ","","preto.","","","",""
"","null","html-keyboard-response","579","1336659","0.0-3.0-0.484-0.484","<span style= ""font-size:30px; font-family: monospace"">+</span>","null","fixation","","","","",""
"","931","audio-keyboard-response","580","1338583","0.0-3.0-1.484","../audio/67-1-masc.mp3"," ","","Minha","","","",""
"","1760","audio-keyboard-response","581","1340863","0.0-3.0-1.485","../audio/67-2-masc.mp3"," ","","tia","","","",""
"","1021","audio-keyboard-response","582","1342878","0.0-3.0-1.486","../audio/67-3-masc.mp3"," ","","comprou","","","",""
"","741","audio-keyboard-response","583","1344124","0.0-3.0-1.487","../audio/67-4-masc.mp3"," ","","um","","","",""
"","992","audio-keyboard-response","584","1345646","0.0-3.0-1.488","../audio/67-5-masc.mp3"," ","","cordão","","","",""
"","720","audio-keyboard-response","585","1346892","0.0-3.0-1.489","../audio/67-6-masc.mp3"," ","","para","","","",""
"","600","audio-keyboard-response","586","1348003","0.0-3.0-1.490","../audio/67-7-masc.mp3"," ","","o","","","",""
"","1131","audio-keyboard-response","587","1349650","0.0-3.0-1.491","../audio/67-8-masc.mp3"," ","","varal.","","","",""
"","null","html-keyboard-response","588","1350902","0.0-3.0-0.492-0.492","<span style= ""font-size:30px; font-family: monospace"">+</span>","null","fixation","","","","",""
"","688","audio-keyboard-response","589","1352581","0.0-3.0-1.492","../audio/70-1-masc.mp3"," ","","O","","","",""
"","800","audio-keyboard-response","590","1353904","0.0-3.0-1.493","../audio/70-2-masc.mp3"," ","","meu","","","",""
"","488","audio-keyboard-response","591","1354941","0.0-3.0-1.494","../audio/70-3-masc.mp3"," ","","filho","","","",""
"","619","audio-keyboard-response","592","1356071","0.0-3.0-1.495","../audio/70-4-masc.mp3"," ","","tem","","","",""
"","1021","audio-keyboard-response","593","1357595","0.0-3.0-1.496","../audio/70-5-masc.mp3"," ","","medo","","","",""
"","531","audio-keyboard-response","594","1358624","0.0-3.0-1.497","../audio/70-6-masc.mp3"," ","","de","","","",""
"","1011","audio-keyboard-response","595","1360406","0.0-3.0-1.498","../audio/70-7-masc.mp3"," ","","enguia","","","",""
"","669","audio-keyboard-response","596","1361583","0.0-3.0-1.499","../audio/70-8-masc.mp3"," ","","e","","","",""
"","1269","audio-keyboard-response","597","1363585","0.0-3.0-1.500","../audio/70-9-masc.mp3"," ","","beija-flor.","","","",""
"","5795","html-keyboard-response","598","1369631","0.0-3.0-2.500-0.500","<span style=""font-size:25px; font-family: monospace"">O filho tem medo de tigre?</span>","n","","","O filho tem medo de tigre?","null","exp-sent","false"
"","null","html-keyboard-response","599","1371141","0.0-3.0-0.501-0.501","<span style= ""font-size:30px; font-family: monospace"">+</span>","null","fixation","","","","",""
"","1701","audio-keyboard-response","600","1373851","0.0-3.0-1.501","../audio/02-2-fem.mp3"," ","","Havia","","","",""
"","91","audio-keyboard-response","601","1374190","0.0-3.0-1.502","../audio/02-2-fem.mp3"," ","","um","","","",""
"","11","audio-keyboard-response","602","1375184","0.0-3.0-1.503","../audio/02-3-fem.mp3"," ","","cheiro","","","",""
"","21","audio-keyboard-response","603","1375716","0.0-3.0-1.504","../audio/02-4-fem.mp3"," ","","de","","","",""
"","21","audio-keyboard-response","604","1376245","0.0-3.0-1.505","../audio/02-5-fem.mp3"," ","","gasolina","","","",""
"","40","audio-keyboard-response","605","1376797","0.0-3.0-1.506","../audio/02-6-fem.mp3"," ","","na","","","",""
"","29","audio-keyboard-response","606","1377350","0.0-3.0-1.507","../audio/02-7-fem.mp3"," ","","garagem.","","","",""
"","null","html-keyboard-response","607","1378601","0.0-3.0-0.508-0.508","<span style= ""font-size:30px; font-family: monospace"">+</span>","null","fixation","","","","",""
"","32","audio-keyboard-response","608","1379369","0.0-3.0-1.508","../audio/04-1-fem.mp3"," ","","Duzentos","","","",""
"","29","audio-keyboard-response","609","1379906","0.0-3.0-1.509","../audio/04-2-fem.mp3"," ","","carros","","","",""
"","11","audio-keyboard-response","610","1380670","0.0-3.0-1.510","../audio/04-3-fem.mp3"," ","","passaram","","","",""
"","160","audio-keyboard-response","611","1381342","0.0-3.0-1.511","../audio/04-4-fem.mp3"," ","","pela","","","",""
"","141","audio-keyboard-response","612","1381992","0.0-3.0-1.512","../audio/04-5-fem.mp3"," ","","ponte","","","",""
"","221","audio-keyboard-response","613","1382716","0.0-3.0-1.513","../audio/04-6-fem.mp3"," ","","hoje","","","",""
"","699","audio-keyboard-response","614","1383944","0.0-3.0-1.514","../audio/04-7-fem.mp3"," ","","de","","","",""
"","291","audio-keyboard-response","615","1384745","0.0-3.0-1.515","../audio/04-8-fem.mp3"," ","","tarde.","","","",""
"","null","html-keyboard-response","616","1385997","0.0-3.0-0.516-0.516","<span style= ""font-size:30px; font-family: monospace"">+</span>","null","fixation","","","","",""
"","571","audio-keyboard-response","617","1387771","0.0-3.0-1.516","../audio/03-1-fem.mp3"," ","","O","","","",""
"","971","audio-keyboard-response","618","1389270","0.0-3.0-1.517","../audio/03-2-fem.mp3"," ","","coelho","","","",""
"","669","audio-keyboard-response","619","1390959","0.0-3.0-1.518","../audio/03-3-fem.mp3"," ","","foi","","","",""
"","1411","audio-keyboard-response","620","1393152","0.0-3.0-1.519","../audio/03-4-fem.mp3"," ","","bastante","","","",""
"","728","audio-keyboard-response","621","1394975","0.0-3.0-1.520","../audio/03-5-fem.mp3"," ","","dócil","","","",""
"","600","audio-keyboard-response","622","1396088","0.0-3.0-1.521","../audio/03-6-fem.mp3"," ","","com","","","",""
"","600","audio-keyboard-response","623","1397237","0.0-3.0-1.522","../audio/03-7-fem.mp3"," ","","as","","","",""
"","659","audio-keyboard-response","624","1398668","0.0-3.0-1.523","../audio/03-8-fem.mp3"," ","","crianças.","","","",""
"","null","html-keyboard-response","625","1399921","0.0-3.0-0.524-0.524","<span style= ""font-size:30px; font-family: monospace"">+</span>","null","fixation","","","","",""
"","600","audio-keyboard-response","626","1401506","0.0-3.0-1.524","../audio/01-1-fem.mp3"," ","","O","","","",""
"","971","audio-keyboard-response","627","1403004","0.0-3.0-1.525","../audio/01-2-fem.mp3"," ","","menino","","","",""
"","968","audio-keyboard-response","628","1404499","0.0-3.0-1.526","../audio/01-3-fem.mp3"," ","","derrubou","","","",""
"","589","audio-keyboard-response","629","1405593","0.0-3.0-1.527","../audio/01-4-fem.mp3"," ","","a","","","",""
"","1221","audio-keyboard-response","630","1407572","0.0-3.0-1.528","../audio/01-5-fem.mp3"," ","","guitarra","","","",""
"","731","audio-keyboard-response","631","1408832","0.0-3.0-1.529","../audio/01-6-fem.mp3"," ","","no","","","",""
"","1029","audio-keyboard-response","632","1410377","0.0-3.0-1.530","../audio/01-7-fem.mp3"," ","","chão.","","","",""
"","null","html-keyboard-response","633","1411628","0.0-3.0-0.531-0.531","<span style= ""font-size:30px; font-family: monospace"">+</span>","null","fixation","","","","",""
"","680","audio-keyboard-response","634","1413319","0.0-3.0-1.531","../audio/05-1-fem.mp3"," ","","A","","","",""
"","952","audio-keyboard-response","635","1415044","0.0-3.0-1.532","../audio/05-2-fem.mp3"," ","","vendedora","","","",""
"","1069","audio-keyboard-response","636","1416872","0.0-3.0-1.533","../audio/05-3-fem.mp3"," ","","ajudou","","","",""
"","688","audio-keyboard-response","637","1418134","0.0-3.0-1.534","../audio/05-4-fem.mp3"," ","","um","","","",""
"","848","audio-keyboard-response","638","1419774","0.0-3.0-1.535","../audio/05-5-fem.mp3"," ","","turista","","","",""
"","568","audio-keyboard-response","639","1421336","0.0-3.0-1.536","../audio/05-6-fem.mp3"," ","","na","","","",""
"","901","audio-keyboard-response","640","1422758","0.0-3.0-1.537","../audio/05-7-fem.mp3"," ","","loja.","","","",""
"","4130","html-keyboard-response","641","1427140","0.0-3.0-2.537-0.537","<span style=""font-size:25px; font-family: monospace"">A vendedora ajudou um turista?</span>","s","","","A vendedora ajudou um turista?","null","exp-sent","false"
"","null","html-keyboard-response","642","1428641","0.0-3.0-0.538-0.538","<span style= ""font-size:30px; font-family: monospace"">+</span>","null","fixation","","","","",""
"","859","audio-keyboard-response","643","1431831","0.0-3.0-1.538","../audio/36-1-fem.mp3"," ","","Meu","","","",""
"","0","audio-keyboard-response","644","1432350","0.0-3.0-1.539","../audio/36-2-fem.mp3"," ","","tio","","","",""
"","51","audio-keyboard-response","645","1432925","0.0-3.0-1.540","../audio/36-3-fem.mp3"," ","","comprou","","","",""
"","91","audio-keyboard-response","646","1433527","0.0-3.0-1.541","../audio/36-4-fem.mp3"," ","","um","","","",""
"","141","audio-keyboard-response","647","1434205","0.0-3.0-1.542","../audio/36-5-fem.mp3"," ","","filtro","","","",""
"","621","audio-keyboard-response","648","1435371","0.0-3.0-1.543","../audio/36-6-fem.mp3"," ","","de","","","",""
"","581","audio-keyboard-response","649","1436483","0.0-3.0-1.544","../audio/36-7-fem.mp3"," ","","água","","","",""
"","139","audio-keyboard-response","650","1437182","0.0-3.0-1.545","../audio/36-8-fem.mp3"," ","","hoje","","","",""
"","1160","audio-keyboard-response","651","1439114","0.0-3.0-1.546","../audio/36-9-fem.mp3"," ","","cedo.","","","",""
"","null","html-keyboard-response","652","1440365","0.0-3.0-0.547-0.547","<span style= ""font-size:30px; font-family: monospace"">+</span>","null","fixation","","","","",""
"","1011","audio-keyboard-response","653","1442362","0.0-3.0-1.547","../audio/39-1-fem.mp3"," ","","O","","","",""
"","1011","audio-keyboard-response","654","1444144","0.0-3.0-1.548","../audio/39-2-fem.mp3"," ","","conselho","","","",""
"","661","audio-keyboard-response","655","1445316","0.0-3.0-1.549","../audio/39-3-fem.mp3"," ","","foi","","","",""
"","1109","audio-keyboard-response","656","1446940","0.0-3.0-1.550","../audio/39-4-fem.mp3"," ","","muito","","","",""
"","589","audio-keyboard-response","657","1448037","0.0-3.0-1.551","../audio/39-5-fem.mp3"," ","","útil","","","",""
"","760","audio-keyboard-response","658","1449309","0.0-3.0-1.552","../audio/39-6-fem.mp3"," ","","para","","","",""
"","1080","audio-keyboard-response","659","1451387","0.0-3.0-1.553","../audio/39-7-fem.mp3"," ","","minha","","","",""
"","840","audio-keyboard-response","660","1452746","0.0-3.0-1.554","../audio/39-8-fem.mp3"," ","","tia.","","","",""
"","null","html-keyboard-response","661","1453998","0.0-3.0-0.555-0.555","<span style= ""font-size:30px; font-family: monospace"">+</span>","null","fixation","","","","",""
"","200","audio-keyboard-response","662","1455234","0.0-3.0-1.555","../audio/38-1-masc.mp3"," ","","A","","","",""
"","931","audio-keyboard-response","663","1456676","0.0-3.0-1.556","../audio/38-2-masc.mp3"," ","","empresa","","","",""
"","749","audio-keyboard-response","664","1457941","0.0-3.0-1.557","../audio/38-3-masc.mp3"," ","","criou","","","",""
"","589","audio-keyboard-response","665","1459035","0.0-3.0-1.558","../audio/38-4-masc.mp3"," ","","a","","","",""
"","1051","audio-keyboard-response","666","1460829","0.0-3.0-1.559","../audio/38-5-masc.mp3"," ","","patente","","","",""
"","629","audio-keyboard-response","667","1461952","0.0-3.0-1.560","../audio/38-6-masc.mp3"," ","","da","","","",""
"","1149","audio-keyboard-response","668","1463858","0.0-3.0-1.561","../audio/38-7-masc.mp3"," ","","frigideira.","","","",""
"","null","html-keyboard-response","669","1465110","0.0-3.0-0.562-0.562","<span style= ""font-size:30px; font-family: monospace"">+</span>","null","fixation","","","","",""
"","739","audio-keyboard-response","670","1466829","0.0-3.0-1.562","../audio/37-1-masc.mp3"," ","","Eu","","","",""
"","971","audio-keyboard-response","671","1468314","0.0-3.0-1.563","../audio/37-2-masc.mp3"," ","","adoro","","","",""
"","901","audio-keyboard-response","672","1469725","0.0-3.0-1.564","../audio/37-3-masc.mp3"," ","","suco","","","",""
"","512","audio-keyboard-response","673","1471245","0.0-3.0-1.565","../audio/37-4-masc.mp3"," ","","de","","","",""
"","1019","audio-keyboard-response","674","1472792","0.0-3.0-1.566","../audio/37-5-masc.mp3"," ","","manga","","","",""
"","741","audio-keyboard-response","675","1474035","0.0-3.0-1.567","../audio/37-6-masc.mp3"," ","","com","","","",""
"","1160","audio-keyboard-response","676","1475706","0.0-3.0-1.568","../audio/37-7-masc.mp3"," ","","hortelã.","","","",""
"","null","html-keyboard-response","677","1476958","0.0-3.0-0.569-0.569","<span style= ""font-size:30px; font-family: monospace"">+</span>","null","fixation","","","","",""
"","309","audio-keyboard-response","678","1478268","0.0-3.0-1.569","../audio/40-1-fem.mp3"," ","","O","","","",""
"","1091","audio-keyboard-response","679","1479871","0.0-3.0-1.570","../audio/40-2-fem.mp3"," ","","jogo","","","",""
"","1440","audio-keyboard-response","680","1482532","0.0-3.0-1.571","../audio/40-3-fem.mp3"," ","","falava","","","",""
"","661","audio-keyboard-response","681","1484251","0.0-3.0-1.572","../audio/40-4-fem.mp3"," ","","de","","","",""
"","1440","audio-keyboard-response","682","1486445","0.0-3.0-1.573","../audio/40-5-fem.mp3"," ","","fantasia","","","",""
"","541","audio-keyboard-response","683","1488042","0.0-3.0-1.574","../audio/40-6-fem.mp3"," ","","e","","","",""
"","549","audio-keyboard-response","684","1489108","0.0-3.0-1.575","../audio/40-7-fem.mp3"," ","","de","","","",""
"","1589","audio-keyboard-response","685","1491935","0.0-3.0-1.576","../audio/40-8-fem.mp3"," ","","aventura.","","","",""
"","4146","html-keyboard-response","686","1496332","0.0-3.0-2.576-0.576","<span style=""font-size:25px; font-family: monospace"">O jogo tinha fantasia e aventura?</span>","s","","","O jogo tinha fantasia e aventura?","null","exp-sent","false"
"","null","html-keyboard-response","687","1497836","0.0-3.0-0.577-0.577","<span style= ""font-size:30px; font-family: monospace"">+</span>","null","fixation","","","","",""
"","1789","audio-keyboard-response","688","1500857","0.0-3.0-1.577","../audio/77-1-masc.mp3"," ","","A","","","",""
"","1011","audio-keyboard-response","689","1502911","0.0-3.0-1.578","../audio/77-2-masc.mp3"," ","","criança","","","",""
"","861","audio-keyboard-response","690","1504352","0.0-3.0-1.579","../audio/77-3-masc.mp3"," ","","ficou","","","",""
"","869","audio-keyboard-response","691","1505761","0.0-3.0-1.580","../audio/77-4-masc.mp3"," ","","muito","","","",""
"","1392","audio-keyboard-response","692","1507689","0.0-3.0-1.581","../audio/77-5-masc.mp3"," ","","feliz","","","",""
"","579","audio-keyboard-response","693","1509950","0.0-3.0-1.582","../audio/77-6-masc.mp3"," ","","com","","","",""
"","531","audio-keyboard-response","694","1511487","0.0-3.0-1.583","../audio/77-7-masc.mp3"," ","","o","","","",""
"","888","audio-keyboard-response","695","1512897","0.0-3.0-1.584","../audio/77-8-masc.mp3"," ","","brinquedo.","","","",""
"","null","html-keyboard-response","696","1514149","0.0-3.0-0.585-0.585","<span style= ""font-size:30px; font-family: monospace"">+</span>","null","fixation","","","","",""
"","592","audio-keyboard-response","697","1515765","0.0-3.0-1.585","../audio/79-1-masc.mp3"," ","","A","","","",""
"","1269","audio-keyboard-response","698","1517786","0.0-3.0-1.586","../audio/79-2-masc.mp3"," ","","médica","","","",""
"","528","audio-keyboard-response","699","1519820","0.0-3.0-1.587","../audio/79-3-masc.mp3"," ","","verificou","","","",""
"","1101","audio-keyboard-response","700","1521926","0.0-3.0-1.588","../audio/79-4-masc.mp3"," ","","a","","","",""
"","1240","audio-keyboard-response","701","1523929","0.0-3.0-1.589","../audio/79-5-masc.mp3"," ","","gengiva","","","",""
"","680","audio-keyboard-response","702","1525140","0.0-3.0-1.590","../audio/79-6-masc.mp3"," ","","por","","","",""
"","1219","audio-keyboard-response","703","1526903","0.0-3.0-1.591","../audio/79-7-masc.mp3"," ","","último.","","","",""
"","null","html-keyboard-response","704","1528155","0.0-3.0-0.592-0.592","<span style= ""font-size:30px; font-family: monospace"">+</span>","null","fixation","","","","",""
"","640","audio-keyboard-response","705","1529809","0.0-3.0-1.592","../audio/76-1-masc.mp3"," ","","O","","","",""
"","1051","audio-keyboard-response","706","1531870","0.0-3.0-1.593","../audio/76-2-masc.mp3"," ","","bisavô","","","",""
"","829","audio-keyboard-response","707","1533228","0.0-3.0-1.594","../audio/76-3-masc.mp3"," ","","comprou","","","",""
"","661","audio-keyboard-response","708","1534400","0.0-3.0-1.595","../audio/76-4-masc.mp3"," ","","um","","","",""
"","1232","audio-keyboard-response","709","1538052","0.0-3.0-1.596","../audio/76-5-masc.mp3"," ","","ralador","","","",""
"","509","audio-keyboard-response","710","1539595","0.0-3.0-1.597","../audio/76-6-masc.mp3"," ","","de","","","",""
"","859","audio-keyboard-response","711","1541467","0.0-3.0-1.598","../audio/76-7-masc.mp3"," ","","queijo.","","","",""
"","null","html-keyboard-response","712","1542720","0.0-3.0-0.599-0.599","<span style= ""font-size:30px; font-family: monospace"">+</span>","null","fixation","","","","",""
"","939","audio-keyboard-response","713","1544655","0.0-3.0-1.599","../audio/78-1-fem.mp3"," ","","Eles","","","",""
"","1099","audio-keyboard-response","714","1546259","0.0-3.0-1.600","../audio/78-2-fem.mp3"," ","","trazem","","","",""
"","688","audio-keyboard-response","715","1547459","0.0-3.0-1.601","../audio/78-3-fem.mp3"," ","","um","","","",""
"","1179","audio-keyboard-response","716","1549148","0.0-3.0-1.602","../audio/78-4-fem.mp3"," ","","fato","","","",""
"","1909","audio-keyboard-response","717","1552277","0.0-3.0-1.603","../audio/78-5-fem.mp3"," ","","urgente","","","",""
"","1400","audio-keyboard-response","718","1554681","0.0-3.0-1.604","../audio/78-6-fem.mp3"," ","","todos","","","",""
"","691","audio-keyboard-response","719","1555892","0.0-3.0-1.605","../audio/78-7-fem.mp3"," ","","os","","","",""
"","899","audio-keyboard-response","720","1557541","0.0-3.0-1.606","../audio/78-8-fem.mp3"," ","","dias.","","","",""
"","null","html-keyboard-response","721","1558793","0.0-3.0-0.607-0.607","<span style= ""font-size:30px; font-family: monospace"">+</span>","null","fixation","","","","",""
"","909","audio-keyboard-response","722","1560714","0.0-3.0-1.607","../audio/80-1-masc.mp3"," ","","Meu","","","",""
"","1120","audio-keyboard-response","723","1562344","0.0-3.0-1.608","../audio/80-2-masc.mp3"," ","","primo","","","",""
"","1301","audio-keyboard-response","724","1564161","0.0-3.0-1.609","../audio/80-3-masc.mp3"," ","","conheceu","","","",""
"","629","audio-keyboard-response","725","1565314","0.0-3.0-1.610","../audio/80-4-masc.mp3"," ","","um","","","",""
"","872","audio-keyboard-response","726","1566725","0.0-3.0-1.611","../audio/80-5-masc.mp3"," ","","jovem","","","",""
"","1051","audio-keyboard-response","727","1568515","0.0-3.0-1.612","../audio/80-6-masc.mp3"," ","","amável","","","",""
"","581","audio-keyboard-response","728","1569606","0.0-3.0-1.613","../audio/80-7-masc.mp3"," ","","e","","","",""
"","1269","audio-keyboard-response","729","1572134","0.0-3.0-1.614","../audio/80-8-masc.mp3"," ","","confiante.","","","",""
"","6762","html-keyboard-response","730","1579147","0.0-3.0-2.614-0.614","<span style=""font-size:25px; font-family: monospace"">O primo conheceu um jovem irritante?</span>","n","","","O primo conheceu um jovem irritante?","null","exp-sent","false"
"[{""page_index"":0,""viewing_time"":5805}]","5805","instructions","731","1585461","0.0-4.0","","","","","","","",""
