[
	{
		"view_history": [
			{
				"page_index": 0,
				"viewing_time": 2476
			}
		],
		"rt": 2477,
		"trial_type": "instructions",
		"trial_index": 0,
		"time_elapsed": 2480,
		"internal_node_id": "0.0-0.0"
	},
	{
		"rt": 127769,
		"response": {
			"reading_habits_printed_magazines": "Alguns dias da semana",
			"reading_habits_printed_newspapers": "Raramente",
			"reading_habits_books": "Alguns dias da semana",
			"reading_habits_printed_socialmedias": "Todos os dias"
		},
		"question_order": [
			0,
			1,
			2,
			3
		],
		"trial_type": "survey-multi-choice",
		"trial_index": 1,
		"time_elapsed": 130384,
		"internal_node_id": "0.0-1.0"
	},
	{
		"rt": 47207,
		"response": {
			"reading_habits_virtual_magazines": "Todos os dias",
			"reading_habits_virtual_newspapers": "Todos os dias",
			"reading_habits_books": "Alguns dias da semana",
			"reading_habits_virtual_socialmedias": "Todos os dias"
		},
		"question_order": [
			0,
			1,
			2,
			3
		],
		"trial_type": "survey-multi-choice",
		"trial_index": 2,
		"time_elapsed": 177695,
		"internal_node_id": "0.0-2.0"
	},
	{
		"rt": 99878,
		"response": {
			"reading_habits_other_which": "matérias acadêmicas",
			"reading_habits_other_frequency": "dois dias na semana"
		},
		"trial_type": "survey-text",
		"trial_index": 3,
		"time_elapsed": 277733,
		"internal_node_id": "0.0-3.0"
	}
]