"view_history","rt","trial_type","trial_index","time_elapsed","internal_node_id","stimulus","response","class","status","answer","correct","trial","letters"
"[{""page_index"":0,""viewing_time"":65441}]","65442","instructions","0","65449","0.0-0.0","","","","","","","",""
"","null","html-keyboard-response","1","66053","0.0-1.0-0.0","+","null","","","","","",""
"","22452","html-keyboard-response","2","88507","0.0-1.0-1.0","oliva","s","null","cog","word","S","prac","null"
"","null","html-keyboard-response","3","89020","0.0-1.0-0.1","+","null","","","","","",""
"","5453","html-keyboard-response","4","94475","0.0-1.0-1.1","chassi","n","null","cog","word","S","prac","null"
"","null","html-keyboard-response","5","94977","0.0-1.0-0.2","+","null","","","","","",""
"","8039","html-keyboard-response","6","103016","0.0-1.0-1.2","plibar","n","null","noncog","pseudo","N","prac","null"
"","null","html-keyboard-response","7","103518","0.0-1.0-0.3","+","null","","","","","",""
"","2084","html-keyboard-response","8","105603","0.0-1.0-1.3","daja","n","null","noncog","pseudo","N","prac","null"
"","null","html-keyboard-response","9","106104","0.0-1.0-0.4","+","null","","","","","",""
"","1768","html-keyboard-response","10","107873","0.0-1.0-1.4","órgão","s","null","noncog","word","S","prac","null"
"","null","html-keyboard-response","11","108374","0.0-1.0-0.5","+","null","","","","","",""
"","2163","html-keyboard-response","12","110538","0.0-1.0-1.5","crante","n","null","noncog","pseudo","N","prac","null"
"","null","html-keyboard-response","13","111041","0.0-1.0-0.6","+","null","","","","","",""
"","2203","html-keyboard-response","14","113244","0.0-1.0-1.6","calmaria","n","null","noncog","word","S","prac","null"
"[{""page_index"":0,""viewing_time"":89678}]","89679","instructions","15","202925","0.0-2.0","","","","","","","",""
"","null","html-keyboard-response","16","203528","0.0-3.0-0.0","+","null","","","","","",""
"","1785","html-keyboard-response","17","205314","0.0-3.0-1.0","grave","s","a","cog","word","S","exp","5"
"","null","html-keyboard-response","18","205816","0.0-3.0-0.1","+","null","","","","","",""
"","1769","html-keyboard-response","19","207586","0.0-3.0-1.1","abieso","n","null","noncog","pseudo","N","exp","null"
"","null","html-keyboard-response","20","208087","0.0-3.0-0.2","+","null","","","","","",""
"","4041","html-keyboard-response","21","212128","0.0-3.0-1.2","sintonizar","n","v","noncog","word","S","exp","10"
"","null","html-keyboard-response","22","212631","0.0-3.0-0.3","+","null","","","","","",""
"","1415","html-keyboard-response","23","214047","0.0-3.0-1.3","apontar","s","v","noncog","word","S","exp","7"
"","null","html-keyboard-response","24","214548","0.0-3.0-0.4","+","null","","","","","",""
"","2633","html-keyboard-response","25","217183","0.0-3.0-1.4","pantufa","s","n","cog","word","S","exp","7"
"","null","html-keyboard-response","26","217684","0.0-3.0-0.5","+","null","","","","","",""
"","1926","html-keyboard-response","27","219611","0.0-3.0-1.5","gruja","n","null","noncog","pseudo","N","exp","null"
"","null","html-keyboard-response","28","220113","0.0-3.0-0.6","+","null","","","","","",""
"","1185","html-keyboard-response","29","221300","0.0-3.0-1.6","país","s","n","noncog","word","S","exp","4"
"","null","html-keyboard-response","30","221803","0.0-3.0-0.7","+","null","","","","","",""
"","1883","html-keyboard-response","31","223687","0.0-3.0-1.7","nivelado","s","a","cog","word","S","exp","8"
"","null","html-keyboard-response","32","224188","0.0-3.0-0.8","+","null","","","","","",""
"","1508","html-keyboard-response","33","225697","0.0-3.0-1.8","açúcar","s","n","noncog","word","S","exp","6"
"","null","html-keyboard-response","34","226199","0.0-3.0-0.9","+","null","","","","","",""
"","2150","html-keyboard-response","35","228350","0.0-3.0-1.9","alfabeto","s","n","cog","word","S","exp","8"
"","null","html-keyboard-response","36","228853","0.0-3.0-0.10","+","null","","","","","",""
"","2501","html-keyboard-response","37","231355","0.0-3.0-1.10","casuas","n","null","noncog","pseudo","N","exp","null"
"","null","html-keyboard-response","38","231857","0.0-3.0-0.11","+","null","","","","","",""
"","1182","html-keyboard-response","39","233041","0.0-3.0-1.11","nacional","s","a","cog","word","S","exp","8"
"","null","html-keyboard-response","40","233542","0.0-3.0-0.12","+","null","","","","","",""
"","2285","html-keyboard-response","41","235828","0.0-3.0-1.12","podilo","n","null","noncog","pseudo","N","exp","null"
"","null","html-keyboard-response","42","236329","0.0-3.0-0.13","+","null","","","","","",""
"","3000","html-keyboard-response","43","239330","0.0-3.0-1.13","promeção","n","null","noncog","pseudo","N","exp","null"
"","null","html-keyboard-response","44","239832","0.0-3.0-0.14","+","null","","","","","",""
"","1524","html-keyboard-response","45","241357","0.0-3.0-1.14","euorpa","s","null","noncog","pseudo","N","exp","null"
"","null","html-keyboard-response","46","241858","0.0-3.0-0.15","+","null","","","","","",""
"","2096","html-keyboard-response","47","243954","0.0-3.0-1.15","tênis","s","n","cog","word","S","exp","5"
"","null","html-keyboard-response","48","244456","0.0-3.0-0.16","+","null","","","","","",""
"","2764","html-keyboard-response","49","247221","0.0-3.0-1.16","burtos","n","null","noncog","pseudo","N","exp","null"
"","null","html-keyboard-response","50","247726","0.0-3.0-0.17","+","null","","","","","",""
"","3517","html-keyboard-response","51","251244","0.0-3.0-1.17","bagunceira","s","a","noncog","word","S","exp","10"
"","null","html-keyboard-response","52","251745","0.0-3.0-0.18","+","null","","","","","",""
"","4081","html-keyboard-response","53","255827","0.0-3.0-1.18","atapdar","s","null","noncog","pseudo","N","exp","null"
"","null","html-keyboard-response","54","256330","0.0-3.0-0.19","+","null","","","","","",""
"","1399","html-keyboard-response","55","257730","0.0-3.0-1.19","memória","s","n","cog","word","S","exp","7"
"","null","html-keyboard-response","56","258235","0.0-3.0-0.20","+","null","","","","","",""
"","2314","html-keyboard-response","57","260552","0.0-3.0-1.20","extravagante","s","a","cog","word","S","exp","12"
"","null","html-keyboard-response","58","261054","0.0-3.0-0.21","+","null","","","","","",""
"","2021","html-keyboard-response","59","263076","0.0-3.0-1.21","gilha","s","null","noncog","pseudo","N","exp","null"
"","null","html-keyboard-response","60","263577","0.0-3.0-0.22","+","null","","","","","",""
"","2511","html-keyboard-response","61","266088","0.0-3.0-1.22","livro","s","n","cog","word","S","exp","5"
"","null","html-keyboard-response","62","266590","0.0-3.0-0.23","+","null","","","","","",""
"","3014","html-keyboard-response","63","269605","0.0-3.0-1.23","pimada","n","null","noncog","pseudo","N","exp","null"
"","null","html-keyboard-response","64","270106","0.0-3.0-0.24","+","null","","","","","",""
"","4765","html-keyboard-response","65","274872","0.0-3.0-1.24","âgnulo","n","null","noncog","pseudo","N","exp","null"
"","null","html-keyboard-response","66","275373","0.0-3.0-0.25","+","null","","","","","",""
"","2022","html-keyboard-response","67","277396","0.0-3.0-1.25","fofo","s","a","noncog","word","S","exp","4"
"","null","html-keyboard-response","68","277898","0.0-3.0-0.26","+","null","","","","","",""
"","2286","html-keyboard-response","69","280185","0.0-3.0-1.26","convidado","s","n","noncog","word","S","exp","9"
"","null","html-keyboard-response","70","280687","0.0-3.0-0.27","+","null","","","","","",""
"","3200","html-keyboard-response","71","283888","0.0-3.0-1.27","ocinto","n","null","noncog","pseudo","N","exp","null"
"","null","html-keyboard-response","72","284389","0.0-3.0-0.28","+","null","","","","","",""
"","1424","html-keyboard-response","73","285814","0.0-3.0-1.28","matinal","s","a","cog","word","S","exp","7"
"","null","html-keyboard-response","74","286315","0.0-3.0-0.29","+","null","","","","","",""
"","2743","html-keyboard-response","75","289060","0.0-3.0-1.29","liso","s","n","noncog","word","S","exp","4"
"","null","html-keyboard-response","76","289561","0.0-3.0-0.30","+","null","","","","","",""
"","2147","html-keyboard-response","77","291709","0.0-3.0-1.30","multiplicar","s","v","cog","word","S","exp","11"
"","null","html-keyboard-response","78","292210","0.0-3.0-0.31","+","null","","","","","",""
"","2289","html-keyboard-response","79","294500","0.0-3.0-1.31","boreta","n","null","noncog","pseudo","N","exp","null"
"","null","html-keyboard-response","80","295001","0.0-3.0-0.32","+","null","","","","","",""
"","1458","html-keyboard-response","81","296460","0.0-3.0-1.32","revista","s","n","cog","word","S","exp","7"
"","null","html-keyboard-response","82","296961","0.0-3.0-0.33","+","null","","","","","",""
"","1840","html-keyboard-response","83","298802","0.0-3.0-1.33","socorro","s","n","noncog","word","S","exp","7"
"","null","html-keyboard-response","84","299304","0.0-3.0-0.34","+","null","","","","","",""
"","2954","html-keyboard-response","85","302258","0.0-3.0-1.34","vervas","n","null","noncog","pseudo","N","exp","null"
"","null","html-keyboard-response","86","302760","0.0-3.0-0.35","+","null","","","","","",""
"","4852","html-keyboard-response","87","307613","0.0-3.0-1.35","cápsula","s","n","noncog","word","S","exp","7"
"","null","html-keyboard-response","88","308114","0.0-3.0-0.36","+","null","","","","","",""
"","2551","html-keyboard-response","89","310665","0.0-3.0-1.36","telafonir","n","null","noncog","pseudo","N","exp","null"
"","null","html-keyboard-response","90","311167","0.0-3.0-0.37","+","null","","","","","",""
"","1166","html-keyboard-response","91","312334","0.0-3.0-1.37","ótimo","s","a","noncog","word","S","exp","5"
"","null","html-keyboard-response","92","312836","0.0-3.0-0.38","+","null","","","","","",""
"","1450","html-keyboard-response","93","314287","0.0-3.0-1.38","tio","s","n","noncog","word","S","exp","3"
"","null","html-keyboard-response","94","314788","0.0-3.0-0.39","+","null","","","","","",""
"","3823","html-keyboard-response","95","318613","0.0-3.0-1.39","lagoa","s","n","cog","word","S","exp","5"
"","null","html-keyboard-response","96","319114","0.0-3.0-0.40","+","null","","","","","",""
"","1747","html-keyboard-response","97","320862","0.0-3.0-1.40","raspar","s","v","noncog","word","S","exp","6"
"","null","html-keyboard-response","98","321363","0.0-3.0-0.41","+","null","","","","","",""
"","1316","html-keyboard-response","99","322681","0.0-3.0-1.41","espinho","s","n","noncog","word","S","exp","7"
"","null","html-keyboard-response","100","323183","0.0-3.0-0.42","+","null","","","","","",""
"","2522","html-keyboard-response","101","325706","0.0-3.0-1.42","bibarconato","n","null","noncog","pseudo","N","exp","null"
"","null","html-keyboard-response","102","326208","0.0-3.0-0.43","+","null","","","","","",""
"","2432","html-keyboard-response","103","328640","0.0-3.0-1.43","tartos","n","null","noncog","pseudo","N","exp","null"
"","null","html-keyboard-response","104","329142","0.0-3.0-0.44","+","null","","","","","",""
"","1531","html-keyboard-response","105","330674","0.0-3.0-1.44","franda","n","null","noncog","pseudo","N","exp","null"
"","null","html-keyboard-response","106","331175","0.0-3.0-0.45","+","null","","","","","",""
"","2896","html-keyboard-response","107","334072","0.0-3.0-1.45","aparme","n","null","noncog","pseudo","N","exp","null"
"","null","html-keyboard-response","108","334573","0.0-3.0-0.46","+","null","","","","","",""
"","1687","html-keyboard-response","109","336261","0.0-3.0-1.46","areia","s","n","noncog","word","S","exp","5"
"","null","html-keyboard-response","110","336771","0.0-3.0-0.47","+","null","","","","","",""
"","1255","html-keyboard-response","111","338029","0.0-3.0-1.47","bandido","s","n","cog","word","S","exp","7"
"","null","html-keyboard-response","112","338530","0.0-3.0-0.48","+","null","","","","","",""
"","3689","html-keyboard-response","113","342222","0.0-3.0-1.48","morija","n","null","noncog","pseudo","N","exp","null"
"","null","html-keyboard-response","114","342722","0.0-3.0-0.49","+","null","","","","","",""
"","1584","html-keyboard-response","115","344307","0.0-3.0-1.49","irratinte","n","null","noncog","pseudo","N","exp","null"
"","null","html-keyboard-response","116","344809","0.0-3.0-0.50","+","null","","","","","",""
"","4533","html-keyboard-response","117","349342","0.0-3.0-1.50","crutas","n","null","noncog","pseudo","N","exp","null"
"","null","html-keyboard-response","118","349843","0.0-3.0-0.51","+","null","","","","","",""
"","815","html-keyboard-response","119","350658","0.0-3.0-1.51","esperar","s","v","cog","word","S","exp","7"
"","null","html-keyboard-response","120","351159","0.0-3.0-0.52","+","null","","","","","",""
"","2072","html-keyboard-response","121","353232","0.0-3.0-1.52","instruído","s","a","noncog","word","S","exp","9"
"","null","html-keyboard-response","122","353734","0.0-3.0-0.53","+","null","","","","","",""
"","1708","html-keyboard-response","123","355442","0.0-3.0-1.53","manfa","n","null","noncog","pseudo","N","exp","null"
"","null","html-keyboard-response","124","355947","0.0-3.0-0.54","+","null","","","","","",""
"","1076","html-keyboard-response","125","357024","0.0-3.0-1.54","refletir","s","v","cog","word","S","exp","8"
"","null","html-keyboard-response","126","357525","0.0-3.0-0.55","+","null","","","","","",""
"","4661","html-keyboard-response","127","362188","0.0-3.0-1.55","bracos","n","null","noncog","pseudo","N","exp","null"
"","null","html-keyboard-response","128","362689","0.0-3.0-0.56","+","null","","","","","",""
"","2348","html-keyboard-response","129","365037","0.0-3.0-1.56","lapestra","s","null","noncog","pseudo","N","exp","null"
"","null","html-keyboard-response","130","365539","0.0-3.0-0.57","+","null","","","","","",""
"","2509","html-keyboard-response","131","368048","0.0-3.0-1.57","fino","s","a","cog","word","S","exp","4"
"","null","html-keyboard-response","132","368558","0.0-3.0-0.58","+","null","","","","","",""
"","2737","html-keyboard-response","133","371297","0.0-3.0-1.58","braras","n","null","noncog","pseudo","N","exp","null"
"","null","html-keyboard-response","134","371798","0.0-3.0-0.59","+","null","","","","","",""
"","2286","html-keyboard-response","135","374084","0.0-3.0-1.59","usnado","n","null","noncog","pseudo","N","exp","null"
"","null","html-keyboard-response","136","374585","0.0-3.0-0.60","+","null","","","","","",""
"","1427","html-keyboard-response","137","376013","0.0-3.0-1.60","traduzir","s","v","cog","word","S","exp","8"
"","null","html-keyboard-response","138","376515","0.0-3.0-0.61","+","null","","","","","",""
"","2607","html-keyboard-response","139","379124","0.0-3.0-1.61","senareta","n","null","noncog","pseudo","N","exp","null"
"","null","html-keyboard-response","140","379626","0.0-3.0-0.62","+","null","","","","","",""
"","1836","html-keyboard-response","141","381463","0.0-3.0-1.62","gertas","n","null","noncog","pseudo","N","exp","null"
"","null","html-keyboard-response","142","381965","0.0-3.0-0.63","+","null","","","","","",""
"","1153","html-keyboard-response","143","383119","0.0-3.0-1.63","morar","s","v","noncog","word","S","exp","5"
"","null","html-keyboard-response","144","383620","0.0-3.0-0.64","+","null","","","","","",""
"","848","html-keyboard-response","145","384469","0.0-3.0-1.64","imitar","s","v","cog","word","S","exp","6"
"","null","html-keyboard-response","146","384970","0.0-3.0-0.65","+","null","","","","","",""
"","1713","html-keyboard-response","147","386684","0.0-3.0-1.65","taberia","n","null","noncog","pseudo","N","exp","null"
"","null","html-keyboard-response","148","387185","0.0-3.0-0.66","+","null","","","","","",""
"","2184","html-keyboard-response","149","389369","0.0-3.0-1.66","prever","s","v","cog","word","S","exp","6"
"","null","html-keyboard-response","150","389873","0.0-3.0-0.67","+","null","","","","","",""
"","1949","html-keyboard-response","151","391823","0.0-3.0-1.67","afual","n","null","noncog","pseudo","N","exp","null"
"","null","html-keyboard-response","152","392325","0.0-3.0-0.68","+","null","","","","","",""
"","1636","html-keyboard-response","153","393962","0.0-3.0-1.68","berquesa","n","null","noncog","pseudo","N","exp","null"
"","null","html-keyboard-response","154","394464","0.0-3.0-0.69","+","null","","","","","",""
"","1120","html-keyboard-response","155","395584","0.0-3.0-1.69","animado","s","a","noncog","word","S","exp","7"
"","null","html-keyboard-response","156","396086","0.0-3.0-0.70","+","null","","","","","",""
"","2298","html-keyboard-response","157","398385","0.0-3.0-1.70","rédesa","n","null","noncog","pseudo","N","exp","null"
"","null","html-keyboard-response","158","398886","0.0-3.0-0.71","+","null","","","","","",""
"","995","html-keyboard-response","159","399881","0.0-3.0-1.71","telefone","s","n","cog","word","S","exp","8"
"","null","html-keyboard-response","160","400383","0.0-3.0-0.72","+","null","","","","","",""
"","801","html-keyboard-response","161","401185","0.0-3.0-1.72","gordo","s","a","noncog","word","S","exp","5"
"","null","html-keyboard-response","162","401687","0.0-3.0-0.73","+","null","","","","","",""
"","1755","html-keyboard-response","163","403443","0.0-3.0-1.73","dilheira","n","null","noncog","pseudo","N","exp","null"
"","null","html-keyboard-response","164","403944","0.0-3.0-0.74","+","null","","","","","",""
"","1391","html-keyboard-response","165","405336","0.0-3.0-1.74","perdão","s","n","noncog","word","S","exp","6"
"","null","html-keyboard-response","166","405838","0.0-3.0-0.75","+","null","","","","","",""
"","6526","html-keyboard-response","167","412365","0.0-3.0-1.75","tatear","n","v","cog","word","S","exp","6"
"","null","html-keyboard-response","168","412866","0.0-3.0-0.76","+","null","","","","","",""
"","863","html-keyboard-response","169","413730","0.0-3.0-1.76","tímido","s","a","cog","word","S","exp","6"
"","null","html-keyboard-response","170","414231","0.0-3.0-0.77","+","null","","","","","",""
"","995","html-keyboard-response","171","415226","0.0-3.0-1.77","nome","s","n","cog","word","S","exp","4"
"","null","html-keyboard-response","172","415728","0.0-3.0-0.78","+","null","","","","","",""
"","2633","html-keyboard-response","173","418361","0.0-3.0-1.78","ronronar","n","v","cog","word","S","exp","8"
"","null","html-keyboard-response","174","418876","0.0-3.0-0.79","+","null","","","","","",""
"","2085","html-keyboard-response","175","420962","0.0-3.0-1.79","cascata","s","n","noncog","word","S","exp","7"
"","null","html-keyboard-response","176","421465","0.0-3.0-0.80","+","null","","","","","",""
"","2864","html-keyboard-response","177","424330","0.0-3.0-1.80","jastor","n","null","noncog","pseudo","N","exp","null"
"","null","html-keyboard-response","178","424831","0.0-3.0-0.81","+","null","","","","","",""
"","876","html-keyboard-response","179","425708","0.0-3.0-1.81","trabalhar","s","v","noncog","word","S","exp","9"
"","null","html-keyboard-response","180","426210","0.0-3.0-0.82","+","null","","","","","",""
"","1665","html-keyboard-response","181","427876","0.0-3.0-1.82","ejerro","n","null","noncog","pseudo","N","exp","null"
"","null","html-keyboard-response","182","428377","0.0-3.0-0.83","+","null","","","","","",""
"","1213","html-keyboard-response","183","429591","0.0-3.0-1.83","oecano","n","null","noncog","pseudo","N","exp","null"
"","null","html-keyboard-response","184","430094","0.0-3.0-0.84","+","null","","","","","",""
"","851","html-keyboard-response","185","430945","0.0-3.0-1.84","promessa","s","n","noncog","word","S","exp","8"
"","null","html-keyboard-response","186","431446","0.0-3.0-0.85","+","null","","","","","",""
"","907","html-keyboard-response","187","432353","0.0-3.0-1.85","verde","s","a","noncog","word","S","exp","5"
"","null","html-keyboard-response","188","432855","0.0-3.0-0.86","+","null","","","","","",""
"","2454","html-keyboard-response","189","435310","0.0-3.0-1.86","selir","n","null","noncog","pseudo","N","exp","null"
"","null","html-keyboard-response","190","435811","0.0-3.0-0.87","+","null","","","","","",""
"","2957","html-keyboard-response","191","438769","0.0-3.0-1.87","cenada","n","null","noncog","pseudo","N","exp","null"
"","null","html-keyboard-response","192","439271","0.0-3.0-0.88","+","null","","","","","",""
"","907","html-keyboard-response","193","440180","0.0-3.0-1.88","liberal","s","a","cog","word","S","exp","7"
"","null","html-keyboard-response","194","440681","0.0-3.0-0.89","+","null","","","","","",""
"","1763","html-keyboard-response","195","442446","0.0-3.0-1.89","pangos","n","null","noncog","pseudo","N","exp","null"
"","null","html-keyboard-response","196","442954","0.0-3.0-0.90","+","null","","","","","",""
"","887","html-keyboard-response","197","443842","0.0-3.0-1.90","espionar","s","v","cog","word","S","exp","8"
"","null","html-keyboard-response","198","444343","0.0-3.0-0.91","+","null","","","","","",""
"","1650","html-keyboard-response","199","445994","0.0-3.0-1.91","cravo","s","n","noncog","word","S","exp","5"
"","null","html-keyboard-response","200","446495","0.0-3.0-0.92","+","null","","","","","",""
"","1911","html-keyboard-response","201","448406","0.0-3.0-1.92","temperar","s","v","noncog","word","S","exp","8"
"","null","html-keyboard-response","202","448908","0.0-3.0-0.93","+","null","","","","","",""
"","2708","html-keyboard-response","203","451617","0.0-3.0-1.93","uçar","n","null","noncog","pseudo","N","exp","null"
"","null","html-keyboard-response","204","452119","0.0-3.0-0.94","+","null","","","","","",""
"","1984","html-keyboard-response","205","454104","0.0-3.0-1.94","morno","s","a","noncog","word","S","exp","5"
"","null","html-keyboard-response","206","454605","0.0-3.0-0.95","+","null","","","","","",""
"","2470","html-keyboard-response","207","457076","0.0-3.0-1.95","candifência","s","null","noncog","pseudo","N","exp","null"
"","null","html-keyboard-response","208","457581","0.0-3.0-0.96","+","null","","","","","",""
"","1623","html-keyboard-response","209","459205","0.0-3.0-1.96","filosofia","s","n","cog","word","S","exp","9"
"","null","html-keyboard-response","210","459710","0.0-3.0-0.97","+","null","","","","","",""
"","814","html-keyboard-response","211","460529","0.0-3.0-1.97","nervoso","s","a","noncog","word","S","exp","7"
"","null","html-keyboard-response","212","461029","0.0-3.0-0.98","+","null","","","","","",""
"","2755","html-keyboard-response","213","463785","0.0-3.0-1.98","motros","n","null","noncog","pseudo","N","exp","null"
"","null","html-keyboard-response","214","464286","0.0-3.0-0.99","+","null","","","","","",""
"","2340","html-keyboard-response","215","466628","0.0-3.0-1.99","manais","s","null","noncog","pseudo","N","exp","null"
"","null","html-keyboard-response","216","467130","0.0-3.0-0.100","+","null","","","","","",""
"","3628","html-keyboard-response","217","470758","0.0-3.0-1.100","lorfaz","s","null","noncog","pseudo","N","exp","null"
"","null","html-keyboard-response","218","471260","0.0-3.0-0.101","+","null","","","","","",""
"","5143","html-keyboard-response","219","476404","0.0-3.0-1.101","costra","n","null","noncog","pseudo","N","exp","null"
"","null","html-keyboard-response","220","476905","0.0-3.0-0.102","+","null","","","","","",""
"","1178","html-keyboard-response","221","478084","0.0-3.0-1.102","pedaço","s","n","noncog","word","S","exp","6"
"","null","html-keyboard-response","222","478585","0.0-3.0-0.103","+","null","","","","","",""
"","2764","html-keyboard-response","223","481350","0.0-3.0-1.103","risbos","n","null","noncog","pseudo","N","exp","null"
"","null","html-keyboard-response","224","481851","0.0-3.0-0.104","+","null","","","","","",""
"","852","html-keyboard-response","225","482707","0.0-3.0-1.104","chato","s","n","noncog","word","S","exp","5"
"","null","html-keyboard-response","226","483207","0.0-3.0-0.105","+","null","","","","","",""
"","1148","html-keyboard-response","227","484356","0.0-3.0-1.105","incomodar","s","v","noncog","word","S","exp","9"
"","null","html-keyboard-response","228","484856","0.0-3.0-0.106","+","null","","","","","",""
"","1512","html-keyboard-response","229","486369","0.0-3.0-1.106","montanha","s","n","cog","word","S","exp","8"
"","null","html-keyboard-response","230","486871","0.0-3.0-0.107","+","null","","","","","",""
"","2624","html-keyboard-response","231","489495","0.0-3.0-1.107","faínas","s","null","noncog","pseudo","N","exp","null"
"","null","html-keyboard-response","232","489997","0.0-3.0-0.108","+","null","","","","","",""
"","1000","html-keyboard-response","233","490997","0.0-3.0-1.108","chorão","s","a","noncog","word","S","exp","6"
"","null","html-keyboard-response","234","491498","0.0-3.0-0.109","+","null","","","","","",""
"","1941","html-keyboard-response","235","493439","0.0-3.0-1.109","loaco","n","null","noncog","pseudo","N","exp","null"
"","null","html-keyboard-response","236","493941","0.0-3.0-0.110","+","null","","","","","",""
"","1198","html-keyboard-response","237","495140","0.0-3.0-1.110","avenas","s","null","noncog","pseudo","N","exp","null"
"","null","html-keyboard-response","238","495647","0.0-3.0-0.111","+","null","","","","","",""
"","1452","html-keyboard-response","239","497100","0.0-3.0-1.111","encelhor","s","null","noncog","pseudo","N","exp","null"
"","null","html-keyboard-response","240","497601","0.0-3.0-0.112","+","null","","","","","",""
"","1440","html-keyboard-response","241","499042","0.0-3.0-1.112","arranjar","s","v","cog","word","S","exp","8"
"","null","html-keyboard-response","242","499550","0.0-3.0-0.113","+","null","","","","","",""
"","1686","html-keyboard-response","243","501237","0.0-3.0-1.113","bachir","s","null","noncog","pseudo","N","exp","null"
"","null","html-keyboard-response","244","501739","0.0-3.0-0.114","+","null","","","","","",""
"","3029","html-keyboard-response","245","504768","0.0-3.0-1.114","plinta","n","null","noncog","pseudo","N","exp","null"
"","null","html-keyboard-response","246","505269","0.0-3.0-0.115","+","null","","","","","",""
"","1413","html-keyboard-response","247","506683","0.0-3.0-1.115","revear","s","null","noncog","pseudo","N","exp","null"
"","null","html-keyboard-response","248","507185","0.0-3.0-0.116","+","null","","","","","",""
"","2129","html-keyboard-response","249","509315","0.0-3.0-1.116","macras","s","null","noncog","pseudo","N","exp","null"
"","null","html-keyboard-response","250","509816","0.0-3.0-0.117","+","null","","","","","",""
"","2773","html-keyboard-response","251","512590","0.0-3.0-1.117","oper","s","null","noncog","pseudo","N","exp","null"
"","null","html-keyboard-response","252","513092","0.0-3.0-0.118","+","null","","","","","",""
"","3251","html-keyboard-response","253","516344","0.0-3.0-1.118","dencosto","n","null","noncog","pseudo","N","exp","null"
"","null","html-keyboard-response","254","516851","0.0-3.0-0.119","+","null","","","","","",""
"","859","html-keyboard-response","255","517715","0.0-3.0-1.119","tela","s","n","noncog","word","S","exp","4"
"","null","html-keyboard-response","256","518217","0.0-3.0-0.120","+","null","","","","","",""
"","981","html-keyboard-response","257","519198","0.0-3.0-1.120","francês","s","a","cog","word","S","exp","7"
"","null","html-keyboard-response","258","519700","0.0-3.0-0.121","+","null","","","","","",""
"","1196","html-keyboard-response","259","520897","0.0-3.0-1.121","agressivo","s","a","cog","word","S","exp","9"
"","null","html-keyboard-response","260","521397","0.0-3.0-0.122","+","null","","","","","",""
"","2716","html-keyboard-response","261","524115","0.0-3.0-1.122","verceja","n","null","noncog","pseudo","N","exp","null"
"","null","html-keyboard-response","262","524619","0.0-3.0-0.123","+","null","","","","","",""
"","2868","html-keyboard-response","263","527488","0.0-3.0-1.123","esfoce","s","null","noncog","pseudo","N","exp","null"
"","null","html-keyboard-response","264","527989","0.0-3.0-0.124","+","null","","","","","",""
"","2458","html-keyboard-response","265","530447","0.0-3.0-1.124","beima","n","null","noncog","pseudo","N","exp","null"
"","null","html-keyboard-response","266","530949","0.0-3.0-0.125","+","null","","","","","",""
"","3251","html-keyboard-response","267","534202","0.0-3.0-1.125","farcas","n","null","noncog","pseudo","N","exp","null"
"","null","html-keyboard-response","268","534704","0.0-3.0-0.126","+","null","","","","","",""
"","857","html-keyboard-response","269","535561","0.0-3.0-1.126","sábio","s","n","noncog","word","S","exp","5"
"","null","html-keyboard-response","270","536065","0.0-3.0-0.127","+","null","","","","","",""
"","1001","html-keyboard-response","271","537067","0.0-3.0-1.127","preferir","s","v","cog","word","S","exp","8"
"","null","html-keyboard-response","272","537568","0.0-3.0-0.128","+","null","","","","","",""
"","2332","html-keyboard-response","273","539901","0.0-3.0-1.128","prantal","s","null","noncog","pseudo","N","exp","null"
"","null","html-keyboard-response","274","540413","0.0-3.0-0.129","+","null","","","","","",""
"","1658","html-keyboard-response","275","542072","0.0-3.0-1.129","uchães","s","null","noncog","pseudo","N","exp","null"
"","null","html-keyboard-response","276","542572","0.0-3.0-0.130","+","null","","","","","",""
"","841","html-keyboard-response","277","543414","0.0-3.0-1.130","destino","s","n","cog","word","S","exp","7"
"","null","html-keyboard-response","278","543915","0.0-3.0-0.131","+","null","","","","","",""
"","2356","html-keyboard-response","279","546272","0.0-3.0-1.131","aemaça","n","null","noncog","pseudo","N","exp","null"
"","null","html-keyboard-response","280","546774","0.0-3.0-0.132","+","null","","","","","",""
"","3087","html-keyboard-response","281","549920","0.0-3.0-1.132","esprotiar","s","null","noncog","pseudo","N","exp","null"
"","null","html-keyboard-response","282","550422","0.0-3.0-0.133","+","null","","","","","",""
"","675","html-keyboard-response","283","551097","0.0-3.0-1.133","dia","s","n","noncog","word","S","exp","3"
"","null","html-keyboard-response","284","551600","0.0-3.0-0.134","+","null","","","","","",""
"","1072","html-keyboard-response","285","552673","0.0-3.0-1.134","medalha","s","n","cog","word","S","exp","7"
"","null","html-keyboard-response","286","553174","0.0-3.0-0.135","+","null","","","","","",""
"","1737","html-keyboard-response","287","554911","0.0-3.0-1.135","brincar","s","v","noncog","word","S","exp","7"
"","null","html-keyboard-response","288","555412","0.0-3.0-0.136","+","null","","","","","",""
"","1809","html-keyboard-response","289","557222","0.0-3.0-1.136","nevela","s","null","noncog","pseudo","N","exp","null"
"","null","html-keyboard-response","290","557724","0.0-3.0-0.137","+","null","","","","","",""
"","1032","html-keyboard-response","291","558756","0.0-3.0-1.137","grátis","s","a","cog","word","S","exp","6"
"","null","html-keyboard-response","292","559257","0.0-3.0-0.138","+","null","","","","","",""
"","1043","html-keyboard-response","293","560304","0.0-3.0-1.138","mabras","s","null","noncog","pseudo","N","exp","null"
"","null","html-keyboard-response","294","560807","0.0-3.0-0.139","+","null","","","","","",""
"","1738","html-keyboard-response","295","562546","0.0-3.0-1.139","planalto","s","n","cog","word","S","exp","8"
"","null","html-keyboard-response","296","563047","0.0-3.0-0.140","+","null","","","","","",""
"","810","html-keyboard-response","297","563858","0.0-3.0-1.140","mudança","s","n","noncog","word","S","exp","7"
"","null","html-keyboard-response","298","564363","0.0-3.0-0.141","+","null","","","","","",""
"","1069","html-keyboard-response","299","565432","0.0-3.0-1.141","sustentar","s","v","noncog","word","S","exp","9"
"","null","html-keyboard-response","300","565933","0.0-3.0-0.142","+","null","","","","","",""
"","607","html-keyboard-response","301","566542","0.0-3.0-1.142","espaço","s","n","cog","word","S","exp","6"
"","null","html-keyboard-response","302","567043","0.0-3.0-0.143","+","null","","","","","",""
"","3288","html-keyboard-response","303","570331","0.0-3.0-1.143","usfiga","s","null","noncog","pseudo","N","exp","null"
"","null","html-keyboard-response","304","570833","0.0-3.0-0.144","+","null","","","","","",""
"","702","html-keyboard-response","305","571535","0.0-3.0-1.144","cerca","s","n","noncog","word","S","exp","5"
"","null","html-keyboard-response","306","572038","0.0-3.0-0.145","+","null","","","","","",""
"","2843","html-keyboard-response","307","574882","0.0-3.0-1.145","detative","n","null","noncog","pseudo","N","exp","null"
"","null","html-keyboard-response","308","575384","0.0-3.0-0.146","+","null","","","","","",""
"","1520","html-keyboard-response","309","576904","0.0-3.0-1.146","dobradiça","s","n","noncog","word","S","exp","9"
"","null","html-keyboard-response","310","577406","0.0-3.0-0.147","+","null","","","","","",""
"","2350","html-keyboard-response","311","579757","0.0-3.0-1.147","bancada","s","n","noncog","word","S","exp","7"
"","null","html-keyboard-response","312","580258","0.0-3.0-0.148","+","null","","","","","",""
"","1206","html-keyboard-response","313","581465","0.0-3.0-1.148","fusbão","s","null","noncog","pseudo","N","exp","null"
"","null","html-keyboard-response","314","581966","0.0-3.0-0.149","+","null","","","","","",""
"","1142","html-keyboard-response","315","583110","0.0-3.0-1.149","cirado","s","null","noncog","pseudo","N","exp","null"
"","null","html-keyboard-response","316","583611","0.0-3.0-0.150","+","null","","","","","",""
"","1134","html-keyboard-response","317","584746","0.0-3.0-1.150","comércio","s","n","noncog","word","S","exp","8"
"","null","html-keyboard-response","318","585246","0.0-3.0-0.151","+","null","","","","","",""
"","1291","html-keyboard-response","319","586543","0.0-3.0-1.151","enxerido","s","a","noncog","word","S","exp","8"
"","null","html-keyboard-response","320","587044","0.0-3.0-0.152","+","null","","","","","",""
"","902","html-keyboard-response","321","587947","0.0-3.0-1.152","barco","s","n","cog","word","S","exp","5"
"","null","html-keyboard-response","322","588448","0.0-3.0-0.153","+","null","","","","","",""
"","1209","html-keyboard-response","323","589657","0.0-3.0-1.153","pitada","s","n","noncog","word","S","exp","6"
"","null","html-keyboard-response","324","590159","0.0-3.0-0.154","+","null","","","","","",""
"","2021","html-keyboard-response","325","592180","0.0-3.0-1.154","prenas","n","null","noncog","pseudo","N","exp","null"
"","null","html-keyboard-response","326","592682","0.0-3.0-0.155","+","null","","","","","",""
"","804","html-keyboard-response","327","593487","0.0-3.0-1.155","mania","s","n","cog","word","S","exp","5"
"","null","html-keyboard-response","328","593989","0.0-3.0-0.156","+","null","","","","","",""
"","970","html-keyboard-response","329","594959","0.0-3.0-1.156","hipócrita","s","a","noncog","word","S","exp","9"
"","null","html-keyboard-response","330","595461","0.0-3.0-0.157","+","null","","","","","",""
"","3427","html-keyboard-response","331","598888","0.0-3.0-1.157","parceter","n","null","noncog","pseudo","N","exp","null"
"","null","html-keyboard-response","332","599390","0.0-3.0-0.158","+","null","","","","","",""
"","884","html-keyboard-response","333","600275","0.0-3.0-1.158","aletiê","s","null","noncog","pseudo","N","exp","null"
"","null","html-keyboard-response","334","600776","0.0-3.0-0.159","+","null","","","","","",""
"","595","html-keyboard-response","335","601372","0.0-3.0-1.159","cristal","s","n","cog","word","S","exp","7"
"","null","html-keyboard-response","336","601873","0.0-3.0-0.160","+","null","","","","","",""
"","1617","html-keyboard-response","337","603491","0.0-3.0-1.160","delomir","s","null","noncog","pseudo","N","exp","null"
"","null","html-keyboard-response","338","603992","0.0-3.0-0.161","+","null","","","","","",""
"","1703","html-keyboard-response","339","605696","0.0-3.0-1.161","pneucania","s","null","noncog","pseudo","N","exp","null"
"","null","html-keyboard-response","340","606196","0.0-3.0-0.162","+","null","","","","","",""
"","3103","html-keyboard-response","341","609300","0.0-3.0-1.162","ilhure","n","null","noncog","pseudo","N","exp","null"
"","null","html-keyboard-response","342","609801","0.0-3.0-0.163","+","null","","","","","",""
"","823","html-keyboard-response","343","610625","0.0-3.0-1.163","agravar","s","v","cog","word","S","exp","7"
"","null","html-keyboard-response","344","611131","0.0-3.0-0.164","+","null","","","","","",""
"","1480","html-keyboard-response","345","612613","0.0-3.0-1.164","mua","s","null","noncog","pseudo","N","exp","null"
"","null","html-keyboard-response","346","613114","0.0-3.0-0.165","+","null","","","","","",""
"","693","html-keyboard-response","347","613807","0.0-3.0-1.165","jantar","s","v","noncog","word","S","exp","6"
"","null","html-keyboard-response","348","614308","0.0-3.0-0.166","+","null","","","","","",""
"","726","html-keyboard-response","349","615034","0.0-3.0-1.166","adoçar","s","v","noncog","word","S","exp","6"
"","null","html-keyboard-response","350","615536","0.0-3.0-0.167","+","null","","","","","",""
"","1785","html-keyboard-response","351","617321","0.0-3.0-1.167","frotes","s","null","noncog","pseudo","N","exp","null"
"","null","html-keyboard-response","352","617832","0.0-3.0-0.168","+","null","","","","","",""
"","833","html-keyboard-response","353","618669","0.0-3.0-1.168","lagras","s","null","noncog","pseudo","N","exp","null"
"","null","html-keyboard-response","354","619170","0.0-3.0-0.169","+","null","","","","","",""
"","1621","html-keyboard-response","355","620792","0.0-3.0-1.169","carona","s","n","noncog","word","S","exp","6"
"","null","html-keyboard-response","356","621294","0.0-3.0-0.170","+","null","","","","","",""
"","1603","html-keyboard-response","357","622898","0.0-3.0-1.170","trenos","s","null","noncog","pseudo","N","exp","null"
"","null","html-keyboard-response","358","623400","0.0-3.0-0.171","+","null","","","","","",""
"","1885","html-keyboard-response","359","625285","0.0-3.0-1.171","fasdas","n","null","noncog","pseudo","N","exp","null"
"","null","html-keyboard-response","360","625787","0.0-3.0-0.172","+","null","","","","","",""
"","756","html-keyboard-response","361","626543","0.0-3.0-1.172","trair","s","v","cog","word","S","exp","5"
"","null","html-keyboard-response","362","627045","0.0-3.0-0.173","+","null","","","","","",""
"","4505","html-keyboard-response","363","631551","0.0-3.0-1.173","orupas","s","null","noncog","pseudo","N","exp","null"
"","null","html-keyboard-response","364","632052","0.0-3.0-0.174","+","null","","","","","",""
"","661","html-keyboard-response","365","632714","0.0-3.0-1.174","filme","s","n","cog","word","S","exp","5"
"","null","html-keyboard-response","366","633219","0.0-3.0-0.175","+","null","","","","","",""
"","1439","html-keyboard-response","367","634662","0.0-3.0-1.175","oricia","s","null","noncog","pseudo","N","exp","null"
"","null","html-keyboard-response","368","635164","0.0-3.0-0.176","+","null","","","","","",""
"","1054","html-keyboard-response","369","636219","0.0-3.0-1.176","delirar","s","v","noncog","word","S","exp","7"
"","null","html-keyboard-response","370","636720","0.0-3.0-0.177","+","null","","","","","",""
"","953","html-keyboard-response","371","637674","0.0-3.0-1.177","afonher","s","null","noncog","pseudo","N","exp","null"
"","null","html-keyboard-response","372","638175","0.0-3.0-0.178","+","null","","","","","",""
"","623","html-keyboard-response","373","638799","0.0-3.0-1.178","grótis","s","null","noncog","pseudo","N","exp","null"
"","null","html-keyboard-response","374","639300","0.0-3.0-0.179","+","null","","","","","",""
"","1570","html-keyboard-response","375","640871","0.0-3.0-1.179","quenzina","s","null","noncog","pseudo","N","exp","null"
"","null","html-keyboard-response","376","641372","0.0-3.0-0.180","+","null","","","","","",""
"","781","html-keyboard-response","377","642154","0.0-3.0-1.180","glória","s","n","cog","word","S","exp","6"
"","null","html-keyboard-response","378","642656","0.0-3.0-0.181","+","null","","","","","",""
"","956","html-keyboard-response","379","643615","0.0-3.0-1.181","drama","s","n","cog","word","S","exp","5"
"","null","html-keyboard-response","380","644117","0.0-3.0-0.182","+","null","","","","","",""
"","3490","html-keyboard-response","381","647607","0.0-3.0-1.182","enedro","n","null","noncog","pseudo","N","exp","null"
"","null","html-keyboard-response","382","648108","0.0-3.0-0.183","+","null","","","","","",""
"","1407","html-keyboard-response","383","649516","0.0-3.0-1.183","fratos","s","null","noncog","pseudo","N","exp","null"
"","null","html-keyboard-response","384","650017","0.0-3.0-0.184","+","null","","","","","",""
"","1150","html-keyboard-response","385","651167","0.0-3.0-1.184","distraído","s","a","cog","word","S","exp","9"
"","null","html-keyboard-response","386","651668","0.0-3.0-0.185","+","null","","","","","",""
"","1255","html-keyboard-response","387","652923","0.0-3.0-1.185","resmungar","s","v","noncog","word","S","exp","9"
"","null","html-keyboard-response","388","653424","0.0-3.0-0.186","+","null","","","","","",""
"","992","html-keyboard-response","389","654417","0.0-3.0-1.186","sanque","s","null","noncog","pseudo","N","exp","null"
"","null","html-keyboard-response","390","654918","0.0-3.0-0.187","+","null","","","","","",""
"","986","html-keyboard-response","391","655905","0.0-3.0-1.187","aivões","s","null","noncog","pseudo","N","exp","null"
"","null","html-keyboard-response","392","656406","0.0-3.0-0.188","+","null","","","","","",""
"","3729","html-keyboard-response","393","660135","0.0-3.0-1.188","ofreta","n","null","noncog","pseudo","N","exp","null"
"","null","html-keyboard-response","394","660636","0.0-3.0-0.189","+","null","","","","","",""
"","1339","html-keyboard-response","395","661976","0.0-3.0-1.189","alpica","s","null","noncog","pseudo","N","exp","null"
"","null","html-keyboard-response","396","662476","0.0-3.0-0.190","+","null","","","","","",""
"","1323","html-keyboard-response","397","663800","0.0-3.0-1.190","ênclio","s","null","noncog","pseudo","N","exp","null"
"","null","html-keyboard-response","398","664302","0.0-3.0-0.191","+","null","","","","","",""
"","1672","html-keyboard-response","399","665975","0.0-3.0-1.191","escumo","s","null","noncog","pseudo","N","exp","null"
"","null","html-keyboard-response","400","666477","0.0-3.0-0.192","+","null","","","","","",""
"","1027","html-keyboard-response","401","667505","0.0-3.0-1.192","pulmão","s","n","noncog","word","S","exp","6"
"","null","html-keyboard-response","402","668006","0.0-3.0-0.193","+","null","","","","","",""
"","2055","html-keyboard-response","403","670062","0.0-3.0-1.193","enxarto","s","null","noncog","pseudo","N","exp","null"
"","null","html-keyboard-response","404","670563","0.0-3.0-0.194","+","null","","","","","",""
"","2349","html-keyboard-response","405","672912","0.0-3.0-1.194","suipestar","n","null","noncog","pseudo","N","exp","null"
"","null","html-keyboard-response","406","673426","0.0-3.0-0.195","+","null","","","","","",""
"","771","html-keyboard-response","407","674200","0.0-3.0-1.195","mal","s","a","cog","word","S","exp","3"
"","null","html-keyboard-response","408","674702","0.0-3.0-0.196","+","null","","","","","",""
"","824","html-keyboard-response","409","675526","0.0-3.0-1.196","carregar","s","v","noncog","word","S","exp","8"
"","null","html-keyboard-response","410","676028","0.0-3.0-0.197","+","null","","","","","",""
"","3239","html-keyboard-response","411","679268","0.0-3.0-1.197","motre","n","null","noncog","pseudo","N","exp","null"
"","null","html-keyboard-response","412","679769","0.0-3.0-0.198","+","null","","","","","",""
"","765","html-keyboard-response","413","680535","0.0-3.0-1.198","tinta","s","n","cog","word","S","exp","5"
"","null","html-keyboard-response","414","681036","0.0-3.0-0.199","+","null","","","","","",""
"","1074","html-keyboard-response","415","682111","0.0-3.0-1.199","independente","s","a","noncog","word","S","exp","12"
"","null","html-keyboard-response","416","682612","0.0-3.0-0.200","+","null","","","","","",""
"","2890","html-keyboard-response","417","685504","0.0-3.0-1.200","hébies","n","null","noncog","pseudo","N","exp","null"
"","null","html-keyboard-response","418","686005","0.0-3.0-0.201","+","null","","","","","",""
"","5016","html-keyboard-response","419","691021","0.0-3.0-1.201","garastia","n","null","noncog","pseudo","N","exp","null"
"","null","html-keyboard-response","420","691523","0.0-3.0-0.202","+","null","","","","","",""
"","4763","html-keyboard-response","421","696287","0.0-3.0-1.202","disbrituir","n","null","noncog","pseudo","N","exp","null"
"","null","html-keyboard-response","422","696788","0.0-3.0-0.203","+","null","","","","","",""
"","1026","html-keyboard-response","423","697815","0.0-3.0-1.203","verdade","s","n","cog","word","S","exp","7"
"","null","html-keyboard-response","424","698316","0.0-3.0-0.204","+","null","","","","","",""
"","2570","html-keyboard-response","425","700888","0.0-3.0-1.204","vitrive","n","null","noncog","pseudo","N","exp","null"
"","null","html-keyboard-response","426","701388","0.0-3.0-0.205","+","null","","","","","",""
"","711","html-keyboard-response","427","702100","0.0-3.0-1.205","reduzir","s","v","cog","word","S","exp","7"
"","null","html-keyboard-response","428","702601","0.0-3.0-0.206","+","null","","","","","",""
"","2258","html-keyboard-response","429","704860","0.0-3.0-1.206","perbas","s","null","noncog","pseudo","N","exp","null"
"","null","html-keyboard-response","430","705362","0.0-3.0-0.207","+","null","","","","","",""
"","2516","html-keyboard-response","431","707879","0.0-3.0-1.207","undivídio","n","null","noncog","pseudo","N","exp","null"
"","null","html-keyboard-response","432","708380","0.0-3.0-0.208","+","null","","","","","",""
"","2132","html-keyboard-response","433","710512","0.0-3.0-1.208","especial","s","a","cog","word","S","exp","8"
"","null","html-keyboard-response","434","711013","0.0-3.0-0.209","+","null","","","","","",""
"","2200","html-keyboard-response","435","713214","0.0-3.0-1.209","pritas","n","null","noncog","pseudo","N","exp","null"
"","null","html-keyboard-response","436","713715","0.0-3.0-0.210","+","null","","","","","",""
"","1083","html-keyboard-response","437","714799","0.0-3.0-1.210","bambu","s","n","cog","word","S","exp","5"
"","null","html-keyboard-response","438","715302","0.0-3.0-0.211","+","null","","","","","",""
"","1538","html-keyboard-response","439","716842","0.0-3.0-1.211","protas","s","null","noncog","pseudo","N","exp","null"
"","null","html-keyboard-response","440","717343","0.0-3.0-0.212","+","null","","","","","",""
"","2642","html-keyboard-response","441","719986","0.0-3.0-1.212","aitrou","n","null","noncog","pseudo","N","exp","null"
"","null","html-keyboard-response","442","720487","0.0-3.0-0.213","+","null","","","","","",""
"","2526","html-keyboard-response","443","723014","0.0-3.0-1.213","conjerto","n","null","noncog","pseudo","N","exp","null"
"","null","html-keyboard-response","444","723515","0.0-3.0-0.214","+","null","","","","","",""
"","2051","html-keyboard-response","445","725568","0.0-3.0-1.214","salpicado","s","a","noncog","word","S","exp","9"
"","null","html-keyboard-response","446","726070","0.0-3.0-0.215","+","null","","","","","",""
"","2178","html-keyboard-response","447","728249","0.0-3.0-1.215","ideisa","n","null","noncog","pseudo","N","exp","null"
"","null","html-keyboard-response","448","728752","0.0-3.0-0.216","+","null","","","","","",""
"","1090","html-keyboard-response","449","729844","0.0-3.0-1.216","fogão","s","n","noncog","word","S","exp","5"
"","null","html-keyboard-response","450","730345","0.0-3.0-0.217","+","null","","","","","",""
"","876","html-keyboard-response","451","731222","0.0-3.0-1.217","melão","s","n","cog","word","S","exp","5"
"","null","html-keyboard-response","452","731724","0.0-3.0-0.218","+","null","","","","","",""
"","879","html-keyboard-response","453","732603","0.0-3.0-1.218","azul","s","n","noncog","word","S","exp","4"
"","null","html-keyboard-response","454","733104","0.0-3.0-0.219","+","null","","","","","",""
"","2275","html-keyboard-response","455","735380","0.0-3.0-1.219","dipata","n","null","noncog","pseudo","N","exp","null"
"","null","html-keyboard-response","456","735881","0.0-3.0-0.220","+","null","","","","","",""
"","1743","html-keyboard-response","457","737625","0.0-3.0-1.220","atitro","n","null","noncog","pseudo","N","exp","null"
"","null","html-keyboard-response","458","738126","0.0-3.0-0.221","+","null","","","","","",""
"","1081","html-keyboard-response","459","739208","0.0-3.0-1.221","propaganda","s","n","cog","word","S","exp","10"
"","null","html-keyboard-response","460","739710","0.0-3.0-0.222","+","null","","","","","",""
"","3004","html-keyboard-response","461","742715","0.0-3.0-1.222","ensuas","n","null","noncog","pseudo","N","exp","null"
"","null","html-keyboard-response","462","743216","0.0-3.0-0.223","+","null","","","","","",""
"","781","html-keyboard-response","463","743998","0.0-3.0-1.223","anjo","s","n","cog","word","S","exp","4"
"","null","html-keyboard-response","464","744502","0.0-3.0-0.224","+","null","","","","","",""
"","2490","html-keyboard-response","465","746993","0.0-3.0-1.224","hedoru","n","null","noncog","pseudo","N","exp","null"
"","null","html-keyboard-response","466","747493","0.0-3.0-0.225","+","null","","","","","",""
"","1013","html-keyboard-response","467","748507","0.0-3.0-1.225","papai","s","n","cog","word","S","exp","5"
"","null","html-keyboard-response","468","749009","0.0-3.0-0.226","+","null","","","","","",""
"","764","html-keyboard-response","469","749774","0.0-3.0-1.226","viver","s","v","cog","word","S","exp","5"
"","null","html-keyboard-response","470","750275","0.0-3.0-0.227","+","null","","","","","",""
"","1215","html-keyboard-response","471","751490","0.0-3.0-1.227","rovaz","n","null","noncog","pseudo","N","exp","null"
"","null","html-keyboard-response","472","751991","0.0-3.0-0.228","+","null","","","","","",""
"","1449","html-keyboard-response","473","753440","0.0-3.0-1.228","terdia","n","null","noncog","pseudo","N","exp","null"
"","null","html-keyboard-response","474","753942","0.0-3.0-0.229","+","null","","","","","",""
"","3653","html-keyboard-response","475","757596","0.0-3.0-1.229","crolatário","n","null","noncog","pseudo","N","exp","null"
"","null","html-keyboard-response","476","758097","0.0-3.0-0.230","+","null","","","","","",""
"","4476","html-keyboard-response","477","762573","0.0-3.0-1.230","aperor","n","null","noncog","pseudo","N","exp","null"
"","null","html-keyboard-response","478","763085","0.0-3.0-0.231","+","null","","","","","",""
"","669","html-keyboard-response","479","763754","0.0-3.0-1.231","civil","s","a","cog","word","S","exp","5"
"","null","html-keyboard-response","480","764255","0.0-3.0-0.232","+","null","","","","","",""
"","2258","html-keyboard-response","481","766515","0.0-3.0-1.232","dacada","n","null","noncog","pseudo","N","exp","null"
"","null","html-keyboard-response","482","767015","0.0-3.0-0.233","+","null","","","","","",""
"","870","html-keyboard-response","483","767886","0.0-3.0-1.233","cinema","s","n","cog","word","S","exp","6"
"","null","html-keyboard-response","484","768387","0.0-3.0-0.234","+","null","","","","","",""
"","1581","html-keyboard-response","485","769969","0.0-3.0-1.234","tronca","s","null","noncog","pseudo","N","exp","null"
"","null","html-keyboard-response","486","770471","0.0-3.0-0.235","+","null","","","","","",""
"","2255","html-keyboard-response","487","772727","0.0-3.0-1.235","deselegante","s","a","noncog","word","S","exp","11"
"","null","html-keyboard-response","488","773229","0.0-3.0-0.236","+","null","","","","","",""
"","864","html-keyboard-response","489","774093","0.0-3.0-1.236","árovre","s","null","noncog","pseudo","N","exp","null"
"","null","html-keyboard-response","490","774595","0.0-3.0-0.237","+","null","","","","","",""
"","1356","html-keyboard-response","491","775951","0.0-3.0-1.237","atrasar","s","v","noncog","word","S","exp","7"
"","null","html-keyboard-response","492","776452","0.0-3.0-0.238","+","null","","","","","",""
"","1362","html-keyboard-response","493","777815","0.0-3.0-1.238","pega-pega","s","n","noncog","word","S","exp","8"
"","null","html-keyboard-response","494","778316","0.0-3.0-0.239","+","null","","","","","",""
"","672","html-keyboard-response","495","778990","0.0-3.0-1.239","carro","s","n","noncog","word","S","exp","5"
