[
	{
		"view_history": [
			{
				"page_index": 0,
				"viewing_time": 5417
			}
		],
		"rt": 5418,
		"trial_type": "instructions",
		"trial_index": 0,
		"time_elapsed": 5423,
		"internal_node_id": "0.0-0.0"
	},
	{
		"rt": 8920,
		"response": {
			"tcle": ""
		},
		"question_order": [
			0
		],
		"trial_type": "survey-multi-choice",
		"trial_index": 1,
		"time_elapsed": 14585,
		"internal_node_id": "0.0-1.0"
	},
	{
		"rt": 28288,
		"response": {
			"email": "keneljoseph1@gmail.com"
		},
		"trial_type": "survey-text",
		"trial_index": 2,
		"time_elapsed": 67304,
		"internal_node_id": "0.0-2.0"
	}
]